Trial Type, Money Option, Item Option, Trial Options, Choice 1, Choice 1 RT, Choice 2, Choice 2 RT, Decision Rating , Selected Option Rating, PostChoiceRT, Computer Response, Choosing For
2,0.75,3,..\..\JOCN-master\task a\images\keebler_fudge_stripes.jpg ..\..\JOCN-master\task a\images\belvita_blueberry.JPG ..\..\JOCN-master\task a\images\chips_ahoy_thin_crisps.jpg,3,2.97853000258,..\..\JOCN-master\task a\images\keebler_fudge_stripes.jpg,n/a,4,4,n/a,1,1
1,1.5,2,..\..\JOCN-master\task a\images\pringles_cheddar_potato crisps.jpg ..\..\JOCN-master\task a\images\nature valley_oats and honey_crunchy.jpg,2,2.80329741287,..\..\JOCN-master\task a\images\pringles_cheddar_potato crisps.jpg,1.32697852323,5,7,n/a,1,1
4,1.5,2,1.5 1.75 0.75 0.5 1.0 1.25,1.5,6.41884980723e-06,$0.75,4.15340764448e-06,n/a,n/a,,1,1
5,0.75,6,..\..\JOCN-master\task a\images\skittles_sour_candy.jpg ..\..\JOCN-master\task a\images\austin_choco creme_choc cookies.jpg ..\..\JOCN-master\task a\images\jacklinks_beef_steak.jpg ..\..\JOCN-master\task a\images\doritos_nacho cheesier_chips.jpg ..\..\JOCN-master\task a\images\skinny_pop_popcorn.jpg ..\..\JOCN-master\task a\images\m&m's_peanut_butter.jpg,6,2.79521189828,..\..\JOCN-master\task a\images\skittles_sour_candy.jpg,0.894090483431,6,5,3.65961962513,0,2
1,1.75,12,..\..\JOCN-master\task a\images\skittles_sour_candy.jpg ..\..\JOCN-master\task a\images\annie's_honey_bunny_grahams.jpg ..\..\JOCN-master\task a\images\austin_peanut_butter.jpg ..\..\JOCN-master\task a\images\hersey_milk_chocolate.jpg ..\..\JOCN-master\task a\images\lays_classic_potato chips.jpg ..\..\JOCN-master\task a\images\annie's_cheddar_bunnies.jpg ..\..\JOCN-master\task a\images\fritos_original_corn chips.jpg ..\..\JOCN-master\task a\images\nature valley_oats and honey_crunchy.jpg ..\..\JOCN-master\task a\images\kitkat_crisp wafers_milk choc.jpg ..\..\JOCN-master\task a\images\basils_peanut_butter.jpg ..\..\JOCN-master\task a\images\annie's_chocolate_bunny_grahams.jpg ..\..\JOCN-master\task a\images\keebler_chips delux_cookies_crackers.jpg,12,0.996965761005,..\..\JOCN-master\task a\images\basils_peanut_butter.jpg,0.899153463892,6,6,3.17831855733,0,1
2,1.25,6,..\..\JOCN-master\task a\images\lays_classic_potato chips.jpg ..\..\JOCN-master\task a\images\kettle_salt_vinegar.jpg ..\..\JOCN-master\task a\images\pepperidge farms-goldish-cheddar.jpg ..\..\JOCN-master\task a\images\wheat_thins.jpg ..\..\JOCN-master\task a\images\lance_choc-o_cookies.jpg ..\..\JOCN-master\task a\images\jacklinks_small_batch.jpg,6,2.17973486276,..\..\JOCN-master\task a\images\lays_classic_potato chips.jpg,1.03897577443,7,7,2.72016885411,0,1
5,1.75,3,..\..\JOCN-master\task a\images\snickers_milk chocolate_candy bar.jpg ..\..\JOCN-master\task a\images\austin_lemon ohs_lemon cookies.jpg ..\..\JOCN-master\task a\images\kettle_salt_pepper.jpg,3,2.2298836296,..\..\JOCN-master\task a\images\kettle_salt_pepper.jpg,2.35077781638,6,5,3.3462264578,0,2
7,1.75,3,..\..\JOCN-master\task a\images\keebler_fudge_stripes.jpg ..\..\JOCN-master\task a\images\austin_peanut_butter.jpg ..\..\JOCN-master\task a\images\sourpatchkids_original_candy.jpg,3,5.6637218222e-06,..\..\JOCN-master\task a\images\austin_peanut_butter.jpg,1.43480719998e-05,n/a,n/a,,1,2
2,0.5,3,..\..\JOCN-master\task a\images\kettle_salt_pepper.jpg ..\..\JOCN-master\task a\images\pringles_sour cream and onion_potato crisps.jpg ..\..\JOCN-master\task a\images\sourpatchkids_original_candy.jpg,3,1.83036844333,..\..\JOCN-master\task a\images\pringles_sour cream and onion_potato crisps.jpg,1.85997039767,7,7,3.77795683499,0,1
6,1.25,12,..\..\JOCN-master\task a\images\sun chips_french onion_chips.jpg ..\..\JOCN-master\task a\images\poptarts_strawberry_frosted.jpg ..\..\JOCN-master\task a\images\annie's_cheddar_bunnies.jpg ..\..\JOCN-master\task a\images\sunchips_harvest cheddar_chips.jpg ..\..\JOCN-master\task a\images\nabisco_chips ahhoy_mini.jpg ..\..\JOCN-master\task a\images\skittles_darkside_candy.jpg ..\..\JOCN-master\task a\images\combos_cheddar cheese_pretzel.jpg ..\..\JOCN-master\task a\images\kars_mango pinapple_trail mix.jpg ..\..\JOCN-master\task a\images\doritos_cool ranch_chips.jpg ..\..\JOCN-master\task a\images\barnum's_animal_crackers.jpg ..\..\JOCN-master\task a\images\basils_lemon.jpg ..\..\JOCN-master\task a\images\chex mix_original_traditional.jpg,12,1.74684682302,..\..\JOCN-master\task a\images\poptarts_strawberry_frosted.jpg,3.04887103353,5,7,n/a,1,2
1,1.0,3,..\..\JOCN-master\task a\images\starburst_orignal_candy.jpg ..\..\JOCN-master\task a\images\keebler_fudge_stripes.jpg ..\..\JOCN-master\task a\images\annie's_honey_bunny_grahams.jpg,3,1.85096811707,..\..\JOCN-master\task a\images\keebler_fudge_stripes.jpg,1.99907379434,7,7,3.3200767244,0,1
2,0.75,2,1.75 1.5 0.75,0.75,1.28128520941,$1.75,3.26379831147,7,7,3.91327083111,0,1
6,0.5,12,..\..\JOCN-master\task a\images\mini_cheese_nips.jpg ..\..\JOCN-master\task a\images\nature valley_oats and honey_crunchy.jpg ..\..\JOCN-master\task a\images\nestle_butterfinger_bar.jpg ..\..\JOCN-master\task a\images\sun chips_garden salsa_chips.jpg ..\..\JOCN-master\task a\images\larabar_apple_pie_bar.jpg ..\..\JOCN-master\task a\images\cheetos_crunchy_chips.jpg ..\..\JOCN-master\task a\images\kettle_salt_vinegar.jpg ..\..\JOCN-master\task a\images\cliff_chocolate chip_bar.jpg ..\..\JOCN-master\task a\images\welch's_mixed fruit_fruit snacks.jpg ..\..\JOCN-master\task a\images\austin_peanut butter_cheese cracker.jpg ..\..\JOCN-master\task a\images\basils_duplex_sandwich_cremes.jpg ..\..\JOCN-master\task a\images\m&m's_peanut_butter.jpg,12,1.39830013143,..\..\JOCN-master\task a\images\cheetos_crunchy_chips.jpg,n/a,7,6,n/a,1,2
4,1.0,2,..\..\JOCN-master\task a\images\swedish fish_original_candy.jpg ..\..\JOCN-master\task a\images\3 musketeers_candy bar.jpg,2,8.68435017765e-06,..\..\JOCN-master\task a\images\swedish fish_original_candy.jpg,9.43947816268e-06,n/a,n/a,,1,1
6,1.75,2,..\..\JOCN-master\task a\images\nabisco_chips ahhoy_mini.jpg ..\..\JOCN-master\task a\images\clif_z_bar.jpg,2,1.77972542326,..\..\JOCN-master\task a\images\nabisco_chips ahhoy_mini.jpg,1.90580115089,1,3,n/a,1,2
5,1.5,3,1.25 1.75 0.5 1.0 1.5 0.75,1.5,2.2843066107,$1.25,2.14799429098,6,6,2.84484488983,0,2
8,1.0,6,1.0 1.25,1.0,5.6637218222e-06,$1.25,3.39822145179e-06,n/a,n/a,,1,2
5,1.25,12,..\..\JOCN-master\task a\images\clif_z_bar.jpg ..\..\JOCN-master\task a\images\skittles_darkside_candy.jpg ..\..\JOCN-master\task a\images\belvita_banana_bread.jpg ..\..\JOCN-master\task a\images\pringles_the original_potato crisps.jpg ..\..\JOCN-master\task a\images\lance_toasty_with_pb.jpg ..\..\JOCN-master\task a\images\teddy_grahams_chocolate.jpg ..\..\JOCN-master\task a\images\milkyway_orginal_candy.jpg ..\..\JOCN-master\task a\images\poptarts_brown_sugar.jpg ..\..\JOCN-master\task a\images\kellogg's_rice krispies_orignal.jpg ..\..\JOCN-master\task a\images\sunchips_harvest cheddar_chips.jpg ..\..\JOCN-master\task a\images\basils_lemon.jpg ..\..\JOCN-master\task a\images\nutrigrain_blueberry_bar.jpg,12,1.92949207837,..\..\JOCN-master\task a\images\pringles_the original_potato crisps.jpg,1.94023349596,4,7,3.64399533311,0,2
6,1.5,2,1.5 0.75 1.0 0.5,1.5,2.09585907176,$1.5,2.64791650936,7,7,4.04626912443,0,2
2,0.5,6,..\..\JOCN-master\task a\images\milkyway_orginal_candy.jpg ..\..\JOCN-master\task a\images\lance_toast_cheese_with_pb.JPG ..\..\JOCN-master\task a\images\pirates booty_aged white cheddar_ corn puffs.jpg ..\..\JOCN-master\task a\images\fig_newtons.jpg ..\..\JOCN-master\task a\images\welch's_berry.jpg ..\..\JOCN-master\task a\images\garden_veggie straws_zesty ranch.jpg,6,1.43035598315,..\..\JOCN-master\task a\images\welch's_berry.jpg,1.65945839818,5,5,2.94533914304,0,1
5,1.25,3,..\..\JOCN-master\task a\images\lance_toasty_with_pb.jpg ..\..\JOCN-master\task a\images\lance_van-o_cookies.jpg ..\..\JOCN-master\task a\images\annie's_honey_bunny_grahams.jpg,3,1.81308996998,..\..\JOCN-master\task a\images\annie's_honey_bunny_grahams.jpg,2.15880027483,6,6,2.98003088613,0,2
1,1.75,2,..\..\JOCN-master\task a\images\nabisco_teddy graham_honey.jpg ..\..\JOCN-master\task a\images\m&m's_peanut_butter.jpg,2,1.73033219558,..\..\JOCN-master\task a\images\nabisco_teddy graham_honey.jpg,1.4721617254,7,6,3.81252624188,0,1
5,1.75,6,1.75 1.25 0.75,1.75,2.2468260561,$1.75,1.58290087752,7,7,3.33017323405,0,2
5,0.5,3,..\..\JOCN-master\task a\images\larabar_peanut_butter_cookie_bar.jpg ..\..\JOCN-master\task a\images\austin_cheddar cheese_cheese cracker.jpg ..\..\JOCN-master\task a\images\pringles_the original_potato crisps.jpg,3,1.38123989973,..\..\JOCN-master\task a\images\larabar_peanut_butter_cookie_bar.jpg,1.63363338413,6,7,4.42931197229,0,2
1,1.75,6,..\..\JOCN-master\task a\images\3 musketeers_candy bar.jpg ..\..\JOCN-master\task a\images\keebler_vanilla_sugar_wafers.jpg ..\..\JOCN-master\task a\images\reeses_peanut butter cups_milk choc.jpg ..\..\JOCN-master\task a\images\cheez itz_original.jpg ..\..\JOCN-master\task a\images\lance_toast_cheese_with_pb.JPG ..\..\JOCN-master\task a\images\m&m's_peanut_butter.jpg,6,1.21476303029,..\..\JOCN-master\task a\images\cheez itz_original.jpg,1.21087130537,7,7,3.22898347711,0,1
5,1.25,3,1.25 1.0 0.75 0.5,1.25,1.2804114875,$1.25,2.43140490254,7,7,3.69619134284,0,2
6,1.75,6,..\..\JOCN-master\task a\images\welch's_mixed fruit_fruit snacks.jpg ..\..\JOCN-master\task a\images\nutrigrain_strawberry_bar.jpg ..\..\JOCN-master\task a\images\grandmas_chocolate chip_cookies.jpg ..\..\JOCN-master\task a\images\basil_vanilla.jpg ..\..\JOCN-master\task a\images\sun chips_french onion_chips.jpg ..\..\JOCN-master\task a\images\keebler_cheese_and_peanut_butter.jpg,6,2.86178467324,..\..\JOCN-master\task a\images\sun chips_french onion_chips.jpg,2.6265488363,5,6,n/a,1,2
1,1.5,12,..\..\JOCN-master\task a\images\nutrigrain_strawberry_bar.jpg ..\..\JOCN-master\task a\images\pirates booty_aged white cheddar_ corn puffs.jpg ..\..\JOCN-master\task a\images\basil_vanilla.jpg ..\..\JOCN-master\task a\images\nutrigrain_apple cinnamon_bar.jpg ..\..\JOCN-master\task a\images\haribo_gold_bears.jpg ..\..\JOCN-master\task a\images\lance_toast_cheese_with_pb.JPG ..\..\JOCN-master\task a\images\nuture valley_crunchy_bar.jpg ..\..\JOCN-master\task a\images\keebler_chips delux_cookies_crackers.jpg ..\..\JOCN-master\task a\images\nutrigrain_blueberry_bar.jpg ..\..\JOCN-master\task a\images\lance_toasty_with_pb.jpg ..\..\JOCN-master\task a\images\cheez itz_original.jpg ..\..\JOCN-master\task a\images\kettle_salt_pepper.jpg,12,1.80126111972,..\..\JOCN-master\task a\images\cheez itz_original.jpg,1.38644409541,7,7,3.05001434806,0,1
4,1.0,12,..\..\JOCN-master\task a\images\haribo_gold_bears.jpg ..\..\JOCN-master\task a\images\austin_cheddar cheese_cheese cracker.jpg ..\..\JOCN-master\task a\images\welch's_tropical_fruits.jpg ..\..\JOCN-master\task a\images\snickers_almond_bar.jpg ..\..\JOCN-master\task a\images\keebler_vanilla_sugar_wafers.jpg ..\..\JOCN-master\task a\images\poptarts_brown_sugar.jpg ..\..\JOCN-master\task a\images\lance_toasty_with_pb.jpg ..\..\JOCN-master\task a\images\jacklinks_small_batch.jpg ..\..\JOCN-master\task a\images\planters_salted_cashews.jpg ..\..\JOCN-master\task a\images\kettle_jalepeno.jpg ..\..\JOCN-master\task a\images\kettle_original.jpg ..\..\JOCN-master\task a\images\snyders_mini_pretzels.jpg,12,6.04131491855e-06,..\..\JOCN-master\task a\images\welch's_tropical_fruits.jpg,9.43953637034e-06,n/a,n/a,,1,1
6,0.5,2,0.5 1.75 1.0 1.25,0.5,2.4292417423,$1.75,1.59879967076,7,6,3.67799610336,0,2
2,1.75,3,..\..\JOCN-master\task a\images\austin_lemon ohs_lemon cookies.jpg ..\..\JOCN-master\task a\images\larabar_apple_pie_bar.jpg ..\..\JOCN-master\task a\images\skinny_pop_popcorn.jpg,3,1.513847397,..\..\JOCN-master\task a\images\austin_lemon ohs_lemon cookies.jpg,1.91087583633,7,6,2.4046011992,0,1
1,1.25,3,..\..\JOCN-master\task a\images\nabisco_nutter butter_cookies and crackers.jpg ..\..\JOCN-master\task a\images\sun chips_original_chips.jpg ..\..\JOCN-master\task a\images\austin_vanilla creme_vanilla cookies.jpg,3,1.32998633158,..\..\JOCN-master\task a\images\nabisco_nutter butter_cookies and crackers.jpg,0.861469015712,7,7,3.51021393726,0,1
7,1.0,3,1.0 0.5,1.0,6.04125671089e-06,$0.5,3.39822145179e-06,n/a,n/a,,1,2
1,1.25,3,..\..\JOCN-master\task a\images\quaker_chewy_peanut butter choc chip.jpg ..\..\JOCN-master\task a\images\cheetos_crunchy_chips.jpg ..\..\JOCN-master\task a\images\austin_lemon ohs_lemon cookies.jpg,3,1.53127954574,..\..\JOCN-master\task a\images\cheetos_crunchy_chips.jpg,1.01110465033,7,6,2.6617944903,0,1
1,0.75,2,..\..\JOCN-master\task a\images\basil_vanilla.jpg ..\..\JOCN-master\task a\images\cliff_chocolate chip_bar.jpg,2,1.39749852748,..\..\JOCN-master\task a\images\basil_vanilla.jpg,1.24364720366,7,7,2.8804586851,0,1
2,1.75,3,..\..\JOCN-master\task a\images\sensible_portions_cinnamon_apple_straws.jpg ..\..\JOCN-master\task a\images\garden_veggie straws_zesty ranch.jpg ..\..\JOCN-master\task a\images\keebler_chips delux_cookies_crackers.jpg,3,1.74729048042,..\..\JOCN-master\task a\images\keebler_chips delux_cookies_crackers.jpg,2.12171882315,7,6,2.69861088035,0,1
2,0.75,6,..\..\JOCN-master\task a\images\lays_kc masterpiece_barbecue chips.jpg ..\..\JOCN-master\task a\images\cliff_chocolate chip_bar.jpg ..\..\JOCN-master\task a\images\pepperidge farms-goldish-cheddar.jpg ..\..\JOCN-master\task a\images\hersey_milk_chocolate.jpg ..\..\JOCN-master\task a\images\pringles_the original_potato crisps.jpg ..\..\JOCN-master\task a\images\haribo_gold_bears.jpg,6,1.79697595566,..\..\JOCN-master\task a\images\pringles_the original_potato crisps.jpg,1.27469680266,7,7,2.93091480271,0,1
5,1.0,6,0.75 1.5 1.75 1.0,1.0,1.84759594331,$1.75,2.11547514761,7,6,3.7136200933,0,2
7,1.25,12,..\..\JOCN-master\task a\images\poptarts_strawberry_frosted.jpg ..\..\JOCN-master\task a\images\sourpatchkids_original_candy.jpg ..\..\JOCN-master\task a\images\basils_peanut_butter.jpg ..\..\JOCN-master\task a\images\haribo_gold_bears.jpg ..\..\JOCN-master\task a\images\lance_captain_wafers_with_honey_and_pb.JPG ..\..\JOCN-master\task a\images\baked_ruffles_cheddar &sour.JPG ..\..\JOCN-master\task a\images\nature_valley_chewy.jpg ..\..\JOCN-master\task a\images\skittles_wild berry_candy.jpg ..\..\JOCN-master\task a\images\clif_z_bar.jpg ..\..\JOCN-master\task a\images\nabisco_mini_ritz.jpg ..\..\JOCN-master\task a\images\snickers_almond_bar.jpg ..\..\JOCN-master\task a\images\larabar_apple_pie_bar.jpg,12,6.04131491855e-06,..\..\JOCN-master\task a\images\larabar_apple_pie_bar.jpg,9.81712946668e-06,n/a,n/a,,1,2
3,0.75,2,..\..\JOCN-master\task a\images\baked_cheetos_crunchy.jpg ..\..\JOCN-master\task a\images\nestle_butterfinger_bar.jpg,2,6.04131491855e-06,..\..\JOCN-master\task a\images\nestle_butterfinger_bar.jpg,1.47256068885e-05,n/a,n/a,,1,1
6,0.75,2,..\..\JOCN-master\task a\images\kitkat_crisp wafers_milk choc.jpg ..\..\JOCN-master\task a\images\mini_fudge_stripes.jpg,2,3.25032283156,..\..\JOCN-master\task a\images\kitkat_crisp wafers_milk choc.jpg,1.5156012596,5,7,2.69505331444,0,2
6,0.75,3,0.5 0.75 1.25 1.5,0.75,1.99650095904,$1.25,1.74860672699,2,6,n/a,1,2
2,1.25,6,..\..\JOCN-master\task a\images\kettle_original.jpg ..\..\JOCN-master\task a\images\jacklinks_beef_jerky_original.jpg ..\..\JOCN-master\task a\images\nabisco_nutter butter_cookies and crackers.jpg ..\..\JOCN-master\task a\images\annie's_chocolate_bunny_grahams.jpg ..\..\JOCN-master\task a\images\twix_milk chocolate_cookie bars.jpg ..\..\JOCN-master\task a\images\kettle_salt_vinegar.jpg,6,2.31630016159,..\..\JOCN-master\task a\images\nabisco_nutter butter_cookies and crackers.jpg,1.05575886182,7,7,2.28173943906,0,1
5,0.75,2,1.25 0.75 0.5,0.75,2.54699483473,$1.25,2.74803355936,7,6,3.67908580141,0,2
2,0.75,2,..\..\JOCN-master\task a\images\kettle_salt_vinegar.jpg ..\..\JOCN-master\task a\images\nestle_crunch_bar.jpg,2,1.41423781548,..\..\JOCN-master\task a\images\nestle_crunch_bar.jpg,0.80432971858,5,7,3.87054001604,0,1
5,1.75,6,..\..\JOCN-master\task a\images\grandmas_oatmeal raisin_cookies.jpg ..\..\JOCN-master\task a\images\sensible_portions_cinnamon_apple_straws.jpg ..\..\JOCN-master\task a\images\austin_lemon ohs_lemon cookies.jpg ..\..\JOCN-master\task a\images\baked_lays_barbeque.jpg ..\..\JOCN-master\task a\images\nuture valley_crunchy_bar.jpg ..\..\JOCN-master\task a\images\nestle_butterfinger_cups.jpg,6,1.36388930841,..\..\JOCN-master\task a\images\austin_lemon ohs_lemon cookies.jpg,2.94372838351,7,7,4.13203093142,0,2
2,0.5,2,..\..\JOCN-master\task a\images\austin_vanilla creme_vanilla cookies.jpg ..\..\JOCN-master\task a\images\skittles_darkside_candy.jpg,2,2.82927836763,..\..\JOCN-master\task a\images\austin_vanilla creme_vanilla cookies.jpg,1.40849367931,5,5,n/a,1,1
6,0.5,12,1.0 1.25 0.5,0.5,2.41739741131,$1.25,2.04844021384,5,7,3.18691644893,0,2
6,1.0,2,1.0 1.75,1.0,2.08043112169,$1.75,1.11625522951,7,7,3.14727462205,0,2
8,1.0,3,..\..\JOCN-master\task a\images\fritos_original_corn chips.jpg ..\..\JOCN-master\task a\images\larabar_cashew_cookie_bar.jpg ..\..\JOCN-master\task a\images\doritos_cool ranch_chips.jpg,3,7.92922219262e-06,..\..\JOCN-master\task a\images\doritos_cool ranch_chips.jpg,8.68435017765e-06,n/a,n/a,,1,2
5,0.75,2,..\..\JOCN-master\task a\images\sun chips_original_chips.jpg ..\..\JOCN-master\task a\images\famous_amos_chocolate_chip.jpg,2,2.37330428482,..\..\JOCN-master\task a\images\sun chips_original_chips.jpg,1.75883954327,6,7,3.87524240685,0,2
2,1.75,2,..\..\JOCN-master\task a\images\pringles_cheddar_potato crisps.jpg ..\..\JOCN-master\task a\images\haribo_gold_bears.jpg,2,1.4299383788,..\..\JOCN-master\task a\images\pringles_cheddar_potato crisps.jpg,0.987435244897,7,7,3.46294799959,0,1
1,0.75,3,..\..\JOCN-master\task a\images\fritos_original_corn chips.jpg ..\..\JOCN-master\task a\images\cheez-it_white_cheddar.JPG ..\..\JOCN-master\task a\images\nabisco_oreo_mini.jpg,3,2.03057460242,..\..\JOCN-master\task a\images\nabisco_oreo_mini.jpg,2.94531573303,3,6,n/a,1,1
3,1.5,3,1.5 1.25,1.5,6.79650111124e-06,$1.5,3.39822145179e-06,n/a,n/a,,1,1
6,0.5,6,1.5 1.25 1.75 0.5,0.5,1.88749225962,$1.75,1.31601093477,5,6,3.3121777348,0,2
4,1.5,3,0.5 1.75 0.75 1.25 1.0 1.5,1.5,5.6637218222e-06,$1.5,3.77581454813e-06,n/a,n/a,,1,1
7,0.75,12,..\..\JOCN-master\task a\images\belvita_banana_bread.jpg ..\..\JOCN-master\task a\images\kellogg's_rice krispies_orignal.jpg ..\..\JOCN-master\task a\images\nabisco_nutter butter_cookies and crackers.jpg ..\..\JOCN-master\task a\images\m&m's_peanut.jpg ..\..\JOCN-master\task a\images\nutrigrain_blueberry_bar.jpg ..\..\JOCN-master\task a\images\poptarts_brown_sugar.jpg ..\..\JOCN-master\task a\images\nature valley_oats and honey_crunchy.jpg ..\..\JOCN-master\task a\images\skittles_sour_candy.jpg ..\..\JOCN-master\task a\images\lance_van-o_cookies.jpg ..\..\JOCN-master\task a\images\poptarts_strawberry_frosted.jpg ..\..\JOCN-master\task a\images\nabisco_mini_ritz.jpg ..\..\JOCN-master\task a\images\annie's_chocolate_bunny_grahams.jpg,12,6.41884980723e-06,..\..\JOCN-master\task a\images\kellogg's_rice krispies_orignal.jpg,8.68440838531e-06,n/a,n/a,,1,2
2,0.5,6,..\..\JOCN-master\task a\images\snickers_milk chocolate_candy bar.jpg ..\..\JOCN-master\task a\images\clif_z_bar.jpg ..\..\JOCN-master\task a\images\m&m's_milk_chocholate.jpg ..\..\JOCN-master\task a\images\nabisco_nutter butter_cookies and crackers.jpg ..\..\JOCN-master\task a\images\doritos_cool ranch_chips.jpg ..\..\JOCN-master\task a\images\doritos_nacho cheesier_chips.jpg,6,n/a,..\..\JOCN-master\task a\images\snickers_milk chocolate_candy bar.jpg,n/a,2,7,n/a,1,1
2,1.0,3,..\..\JOCN-master\task a\images\nabisco_teddy graham_honey.jpg ..\..\JOCN-master\task a\images\nabisco_oreo_mini.jpg ..\..\JOCN-master\task a\images\nestle_butterfinger_bar.jpg,3,2.13493150688,..\..\JOCN-master\task a\images\nabisco_oreo_mini.jpg,1.62801045144,7,7,3.84042417421,0,1
7,0.75,6,..\..\JOCN-master\task a\images\austin_vanilla creme_vanilla cookies.jpg ..\..\JOCN-master\task a\images\mini_fudge_stripes.jpg ..\..\JOCN-master\task a\images\lance_choc-o_cookies.jpg ..\..\JOCN-master\task a\images\nabisco_ritz bits_cookies.jpg ..\..\JOCN-master\task a\images\lance_toast_cheese_with_pb.JPG ..\..\JOCN-master\task a\images\kind bar_peanut butter_bar.jpg,6,6.04125671089e-06,..\..\JOCN-master\task a\images\nabisco_ritz bits_cookies.jpg,8.3067570813e-06,n/a,n/a,,1,2
6,1.25,6,0.75 1.25 1.0 1.5 0.5 1.75,1.25,2.33917740255,$1.75,1.86505905364,6,7,3.29512732022,0,2
1,1.25,12,..\..\JOCN-master\task a\images\basils_duplex_sandwich_cremes.jpg ..\..\JOCN-master\task a\images\kettle_salt_pepper.jpg ..\..\JOCN-master\task a\images\lance_toast_cheese_with_pb.JPG ..\..\JOCN-master\task a\images\nabisco_oreo_mini.jpg ..\..\JOCN-master\task a\images\nature_valley_sweet_and_salty.jpg ..\..\JOCN-master\task a\images\3 musketeers_candy bar.jpg ..\..\JOCN-master\task a\images\welch's_mixed fruit_fruit snacks.jpg ..\..\JOCN-master\task a\images\sun chips_garden salsa_chips.jpg ..\..\JOCN-master\task a\images\garden_veggie straws_cheddar.jpg ..\..\JOCN-master\task a\images\nutrigrain_apple cinnamon_bar.jpg ..\..\JOCN-master\task a\images\baked_lays_sour cream and onion.jpg ..\..\JOCN-master\task a\images\keebler_vanilla_sugar_wafers.jpg,12,1.33087742218,..\..\JOCN-master\task a\images\kettle_salt_pepper.jpg,2.6895481869,6,5,3.71312735043,0,1
5,0.75,3,..\..\JOCN-master\task a\images\teddy_grahams_chocolate.jpg ..\..\JOCN-master\task a\images\mini_fudge_stripes.jpg ..\..\JOCN-master\task a\images\annie's_cheddar_bunnies.jpg,3,1.34747511742,..\..\JOCN-master\task a\images\annie's_cheddar_bunnies.jpg,2.43618431978,6,7,3.51324326772,0,2
1,0.5,3,..\..\JOCN-master\task a\images\nabisco_nutter butter_bites.jpg ..\..\JOCN-master\task a\images\cheez itz_original.jpg ..\..\JOCN-master\task a\images\baked_lays_sour cream and onion.jpg,3,1.66365181009,..\..\JOCN-master\task a\images\cheez itz_original.jpg,0.912726359675,4,7,n/a,1,1
2,1.0,3,..\..\JOCN-master\task a\images\nabisco_nutter butter_cookies and crackers.jpg ..\..\JOCN-master\task a\images\austin_peanut_butter.jpg ..\..\JOCN-master\task a\images\doritos_cool ranch_chips.jpg,3,0.75247655221,..\..\JOCN-master\task a\images\nabisco_nutter butter_cookies and crackers.jpg,1.13082493847,6,7,n/a,1,1
6,0.75,2,..\..\JOCN-master\task a\images\pringles_sour cream and onion_potato crisps.jpg ..\..\JOCN-master\task a\images\annie's_chocolate_chip_bunny_grahams.jpg,2,1.2680804549,..\..\JOCN-master\task a\images\annie's_chocolate_chip_bunny_grahams.jpg,0.000535409490112,3,2,n/a,1,2
7,1.25,6,..\..\JOCN-master\task a\images\nabisco_chips ahhoy_mini.jpg ..\..\JOCN-master\task a\images\basils_peanut_butter.jpg ..\..\JOCN-master\task a\images\jacklinks_beef_stick.jpg ..\..\JOCN-master\task a\images\sourpatchkids_original_candy.jpg ..\..\JOCN-master\task a\images\keebler_vanilla_sugar_wafers.jpg ..\..\JOCN-master\task a\images\swedish fish_original_candy.jpg,6,6.04131491855e-06,..\..\JOCN-master\task a\images\swedish fish_original_candy.jpg,9.81712946668e-06,n/a,n/a,,1,2
1,0.5,2,..\..\JOCN-master\task a\images\sunchips_harvest cheddar_chips.jpg ..\..\JOCN-master\task a\images\nabisco_oreo_mini.jpg,2,1.76311375754,..\..\JOCN-master\task a\images\nabisco_oreo_mini.jpg,1.05697807012,7,7,2.82777899446,0,1
1,1.25,2,..\..\JOCN-master\task a\images\lance_choc-o_cookies.jpg ..\..\JOCN-master\task a\images\m&m's_peanut_butter.jpg,2,1.51416116656,..\..\JOCN-master\task a\images\lance_choc-o_cookies.jpg,1.40194529609,5,7,3.27938257996,0,1
3,0.75,3,..\..\JOCN-master\task a\images\nestle_babyruth_bar.jpg ..\..\JOCN-master\task a\images\nestle_crunch_bar.jpg ..\..\JOCN-master\task a\images\larabar_apple_pie_bar.jpg,3,6.41890801489e-06,..\..\JOCN-master\task a\images\nestle_babyruth_bar.jpg,1.09498505481e-05,n/a,n/a,,1,1
3,1.5,3,..\..\JOCN-master\task a\images\skittles_wild berry_candy.jpg ..\..\JOCN-master\task a\images\grandma's_peanut butter_cookies.jpg ..\..\JOCN-master\task a\images\jacklinks_beef_jerky_original.jpg,3,7.17403599992e-06,..\..\JOCN-master\task a\images\grandma's_peanut butter_cookies.jpg,8.68435017765e-06,n/a,n/a,,1,1
1,1.0,3,..\..\JOCN-master\task a\images\sun chips_original_chips.jpg ..\..\JOCN-master\task a\images\hersey_milk_chocolate.jpg ..\..\JOCN-master\task a\images\nabisco_teddy graham_honey.jpg,3,1.8416437601,..\..\JOCN-master\task a\images\nabisco_teddy graham_honey.jpg,2.48557754757,7,7,2.34605881199,0,1
8,1.0,6,1.75 1.0 0.5,1.0,7.17403599992e-06,$1.75,3.39822145179e-06,n/a,n/a,,1,2
6,0.5,2,..\..\JOCN-master\task a\images\grandmas_chocolate chip_cookies.jpg ..\..\JOCN-master\task a\images\skittles_darkside_candy.jpg,2,2.34532819316,..\..\JOCN-master\task a\images\grandmas_chocolate chip_cookies.jpg,3.85459100455,7,6,3.82583860686,0,2
3,0.5,3,1.75 0.5,0.5,5.6637218222e-06,$1.75,3.39822145179e-06,n/a,n/a,,1,1
8,1.0,12,..\..\JOCN-master\task a\images\keebler_vanilla_sugar_wafers.jpg ..\..\JOCN-master\task a\images\jacklinks_beef_jerky_original.jpg ..\..\JOCN-master\task a\images\fritos_original_corn chips.jpg ..\..\JOCN-master\task a\images\welch's_mixed fruit_fruit snacks.jpg ..\..\JOCN-master\task a\images\cheez-it_white_cheddar.JPG ..\..\JOCN-master\task a\images\pirates booty_aged white cheddar_ corn puffs.jpg ..\..\JOCN-master\task a\images\jacklinks_small_batch.jpg ..\..\JOCN-master\task a\images\garden_veggie straws_zesty ranch.jpg ..\..\JOCN-master\task a\images\kind_dark_chocolate.jpg ..\..\JOCN-master\task a\images\basils_duplex_sandwich_cremes.jpg ..\..\JOCN-master\task a\images\doritos_cool ranch_chips.jpg ..\..\JOCN-master\task a\images\milkyway_orginal_candy.jpg,12,5.6637218222e-06,..\..\JOCN-master\task a\images\garden_veggie straws_zesty ranch.jpg,1.28376996145e-05,n/a,n/a,,1,2
5,0.75,2,..\..\JOCN-master\task a\images\garden_veggie straws_cheddar.jpg ..\..\JOCN-master\task a\images\annie's_chocolate_chip_bunny_grahams.jpg,2,3.59423509688,..\..\JOCN-master\task a\images\annie's_chocolate_chip_bunny_grahams.jpg,1.57822793792,6,7,3.01134856744,0,2
6,1.75,6,..\..\JOCN-master\task a\images\quaker_chewy_peanut butter choc chip.jpg ..\..\JOCN-master\task a\images\belvita_banana_bread.jpg ..\..\JOCN-master\task a\images\quaker_chewy_chocolate chip.jpg ..\..\JOCN-master\task a\images\pirates booty_aged white cheddar_ corn puffs.jpg ..\..\JOCN-master\task a\images\garden_veggie straws_cheddar.jpg ..\..\JOCN-master\task a\images\kettle_salt_vinegar.jpg,6,2.82968653244,..\..\JOCN-master\task a\images\belvita_banana_bread.jpg,3.03106054885,6,5,3.59935169388,0,2
3,1.75,2,1.25 0.75 1.5 1.0 0.5 1.75,1.75,7.17403599992e-06,$1.0,3.39822145179e-06,n/a,n/a,,1,1
5,0.75,2,..\..\JOCN-master\task a\images\skittles_sour_candy.jpg ..\..\JOCN-master\task a\images\teddy_grahams_chocolate.jpg,2,2.54583037563,..\..\JOCN-master\task a\images\teddy_grahams_chocolate.jpg,1.56116959418,7,7,3.74535651173,0,2
5,0.5,12,..\..\JOCN-master\task a\images\nestle_crunch_bar.jpg ..\..\JOCN-master\task a\images\planters_salted_cashews.jpg ..\..\JOCN-master\task a\images\nutrigrain_blueberry_bar.jpg ..\..\JOCN-master\task a\images\grandmas_chocolate chip_cookies.jpg ..\..\JOCN-master\task a\images\nabisco_nutter butter_bites.jpg ..\..\JOCN-master\task a\images\quaker_chewy_chocolate chip.jpg ..\..\JOCN-master\task a\images\larabar_apple_pie_bar.jpg ..\..\JOCN-master\task a\images\sourpatchkids_original_candy.jpg ..\..\JOCN-master\task a\images\skinny_pop_popcorn.jpg ..\..\JOCN-master\task a\images\nabisco_ritz bits_cookies.jpg ..\..\JOCN-master\task a\images\nabisco_mini_ritz.jpg ..\..\JOCN-master\task a\images\swedish fish_original_candy.jpg,12,2.46293893765,..\..\JOCN-master\task a\images\skinny_pop_popcorn.jpg,3.01211316854,6,4,3.85074345657,0,2
8,0.75,3,0.5 1.5 1.25 0.75,0.75,6.04125671089e-06,$1.25,3.39827965945e-06,n/a,n/a,,1,2
6,1.0,12,..\..\JOCN-master\task a\images\basil_vanilla.jpg ..\..\JOCN-master\task a\images\belvita_blueberry.JPG ..\..\JOCN-master\task a\images\austin_peanut butter_cheese cracker.jpg ..\..\JOCN-master\task a\images\nabisco_nutter butter_cookies and crackers.jpg ..\..\JOCN-master\task a\images\garden_veggie straws_zesty ranch.jpg ..\..\JOCN-master\task a\images\pirates booty_aged white cheddar_ corn puffs.jpg ..\..\JOCN-master\task a\images\kettle_original.jpg ..\..\JOCN-master\task a\images\jacklinks_small_batch.jpg ..\..\JOCN-master\task a\images\kars_mango pinapple_trail mix.jpg ..\..\JOCN-master\task a\images\garden_veggie straws_sea salt.jpg ..\..\JOCN-master\task a\images\pringles_the original_potato crisps.jpg ..\..\JOCN-master\task a\images\keebler_vanilla_sugar_wafers.jpg,12,2.4640724351,..\..\JOCN-master\task a\images\garden_veggie straws_sea salt.jpg,4.04009605659,5,3,4.20998172509,0,2
8,0.75,12,..\..\JOCN-master\task a\images\annie's_honey_bunny_grahams.jpg ..\..\JOCN-master\task a\images\fritos_original_corn chips.jpg ..\..\JOCN-master\task a\images\barnum's_animal_crackers.jpg ..\..\JOCN-master\task a\images\poptarts_brown_sugar.jpg ..\..\JOCN-master\task a\images\garden_veggie straws_sea salt.jpg ..\..\JOCN-master\task a\images\kellogg's_rice krispies_orignal.jpg ..\..\JOCN-master\task a\images\kars_mango pinapple_trail mix.jpg ..\..\JOCN-master\task a\images\jacklinks_small_batch.jpg ..\..\JOCN-master\task a\images\annie's_chocolate_chip_bunny_grahams.jpg ..\..\JOCN-master\task a\images\nutrigrain_strawberry_bar.jpg ..\..\JOCN-master\task a\images\planters_honey roasted_peanuts.jpg ..\..\JOCN-master\task a\images\twix_milk chocolate_cookie bars.jpg,12,6.04125671089e-06,..\..\JOCN-master\task a\images\garden_veggie straws_sea salt.jpg,1.05722574517e-05,n/a,n/a,,1,2
2,1.75,6,..\..\JOCN-master\task a\images\welch's_berry.jpg ..\..\JOCN-master\task a\images\mini_cheese_nips.jpg ..\..\JOCN-master\task a\images\hersey_milk_chocolate.jpg ..\..\JOCN-master\task a\images\pringles_cheddar_potato crisps.jpg ..\..\JOCN-master\task a\images\austin_lemon ohs_lemon cookies.jpg ..\..\JOCN-master\task a\images\jacklinks_beef_stick.jpg,6,1.58024421928,..\..\JOCN-master\task a\images\pringles_cheddar_potato crisps.jpg,1.44434195227,7,6,3.05067662476,0,1
1,0.75,3,..\..\JOCN-master\task a\images\annie's_cheddar_bunnies.jpg ..\..\JOCN-master\task a\images\grandmas_chocolate brownie_cookie.jpg ..\..\JOCN-master\task a\images\nestle_crunch_bar.jpg,3,1.36391309602,..\..\JOCN-master\task a\images\nestle_crunch_bar.jpg,1.33428697649,7,7,4.20252488257,0,1
2,0.5,6,..\..\JOCN-master\task a\images\kettle_salt_vinegar.jpg ..\..\JOCN-master\task a\images\sun chips_french onion_chips.jpg ..\..\JOCN-master\task a\images\pirates booty_aged white cheddar_ corn puffs.jpg ..\..\JOCN-master\task a\images\basils_duplex_sandwich_cremes.jpg ..\..\JOCN-master\task a\images\lays_kc masterpiece_barbecue chips.jpg ..\..\JOCN-master\task a\images\m&m's_peanut_butter.jpg,6,0.997119058738,..\..\JOCN-master\task a\images\pirates booty_aged white cheddar_ corn puffs.jpg,2.32757661113,7,7,2.89186842064,0,1
3,1.0,6,..\..\JOCN-master\task a\images\kashi_chocolate almond _bars.jpg ..\..\JOCN-master\task a\images\m&m's_peanut.jpg ..\..\JOCN-master\task a\images\nabisco_oreo_mini.jpg ..\..\JOCN-master\task a\images\nature valley_oats and honey_crunchy.jpg ..\..\JOCN-master\task a\images\grandmas_chocolate chip_cookies.jpg ..\..\JOCN-master\task a\images\annie's_honey_bunny_grahams.jpg,6,5.6637218222e-06,..\..\JOCN-master\task a\images\nabisco_oreo_mini.jpg,9.06194327399e-06,n/a,n/a,,1,1
6,1.75,3,..\..\JOCN-master\task a\images\ritz_toasted_chips.jpg ..\..\JOCN-master\task a\images\belvita_blueberry.JPG ..\..\JOCN-master\task a\images\twix_milk chocolate_cookie bars.jpg,3,n/a,..\..\JOCN-master\task a\images\belvita_blueberry.JPG,n/a,7,3,n/a,1,2
1,1.75,12,..\..\JOCN-master\task a\images\nature_valley_chewy.jpg ..\..\JOCN-master\task a\images\nature_valley_sweet_and_salty.jpg ..\..\JOCN-master\task a\images\lays_classic_potato chips.jpg ..\..\JOCN-master\task a\images\welch's_mixed fruit_fruit snacks.jpg ..\..\JOCN-master\task a\images\sunchips_harvest cheddar_chips.jpg ..\..\JOCN-master\task a\images\wheat_thins.jpg ..\..\JOCN-master\task a\images\nabisco_ritz bits_cookies.jpg ..\..\JOCN-master\task a\images\austin_cheddar cheese_cheese cracker.jpg ..\..\JOCN-master\task a\images\annie's_cheddar_bunnies.jpg ..\..\JOCN-master\task a\images\kind_dark_chocolate.jpg ..\..\JOCN-master\task a\images\austin_lemon ohs_lemon cookies.jpg ..\..\JOCN-master\task a\images\baked_ruffles_cheddar &sour.JPG,12,4.0000241652,..\..\JOCN-master\task a\images\lays_classic_potato chips.jpg,1.61389497214,7,7,4.313038619,0,1
1,1.75,6,..\..\JOCN-master\task a\images\famous_amos_chocolate_chip.jpg ..\..\JOCN-master\task a\images\nutrigrain_blueberry_bar.jpg ..\..\JOCN-master\task a\images\baked_lays_classic.jpg ..\..\JOCN-master\task a\images\cliff_chocolate chip_bar.jpg ..\..\JOCN-master\task a\images\pringles_sour cream and onion_potato crisps.jpg ..\..\JOCN-master\task a\images\pepperidge farms-goldish-cheddar.jpg,6,2.74601010408,..\..\JOCN-master\task a\images\baked_lays_classic.jpg,2.47048602201,5,6,3.29684455757,0,1
5,0.5,2,..\..\JOCN-master\task a\images\nestle_crunch_bar.jpg ..\..\JOCN-master\task a\images\jacklinks_beef_jerky_original.jpg,2,1.69726404978,..\..\JOCN-master\task a\images\nestle_crunch_bar.jpg,0.989810983068,4,6,n/a,1,2
1,1.75,6,1.5 0.75 1.75 0.5,1.75,0.806008442712,$0.75,0.000434595451225,1,7,n/a,1,1
2,1.5,3,..\..\JOCN-master\task a\images\jacklinks_small_batch.jpg ..\..\JOCN-master\task a\images\starburst_orignal_candy.jpg ..\..\JOCN-master\task a\images\nestle_babyruth_bar.jpg,3,2.53500664543,..\..\JOCN-master\task a\images\starburst_orignal_candy.jpg,1.95881462295,7,6,3.49159089878,0,1
8,1.0,6,0.75 1.5 1.0,1.0,6.04125671089e-06,$0.75,3.39822145179e-06,n/a,n/a,,1,2
1,0.5,6,..\..\JOCN-master\task a\images\nutrigrain_apple cinnamon_bar.jpg ..\..\JOCN-master\task a\images\pringles_sour cream and onion_potato crisps.jpg ..\..\JOCN-master\task a\images\annie's_chocolate_bunny_grahams.jpg ..\..\JOCN-master\task a\images\austin_cheddar cheese_cheese cracker.jpg ..\..\JOCN-master\task a\images\wheat_thins.jpg ..\..\JOCN-master\task a\images\fig_newtons.jpg,0.5,n/a,1.0,n/a,2,1,n/a,1,1
4,0.5,12,..\..\JOCN-master\task a\images\annie's_honey_bunny_grahams.jpg ..\..\JOCN-master\task a\images\kettle_original.jpg ..\..\JOCN-master\task a\images\keebler_vanilla_sugar_wafers.jpg ..\..\JOCN-master\task a\images\starburst_orignal_candy.jpg ..\..\JOCN-master\task a\images\larabar_cashew_cookie_bar.jpg ..\..\JOCN-master\task a\images\quaker_chewy_chocolate chip.jpg ..\..\JOCN-master\task a\images\m&m's_peanut_butter.jpg ..\..\JOCN-master\task a\images\lays_kc masterpiece_barbecue chips.jpg ..\..\JOCN-master\task a\images\keebler_fudge_stripes.jpg ..\..\JOCN-master\task a\images\sun chips_french onion_chips.jpg ..\..\JOCN-master\task a\images\kettle_salt_pepper.jpg ..\..\JOCN-master\task a\images\cliff_chocolate chip_bar.jpg,12,1.0194722563e-05,..\..\JOCN-master\task a\images\m&m's_peanut_butter.jpg,8.68435017765e-06,n/a,n/a,,1,1
1,1.5,12,..\..\JOCN-master\task a\images\reeses_peanut butter cups_milk choc.jpg ..\..\JOCN-master\task a\images\pepperidge farms-goldish-cheddar.jpg ..\..\JOCN-master\task a\images\annie's_chocolate_chip_bunny_grahams.jpg ..\..\JOCN-master\task a\images\twix_milk chocolate_cookie bars.jpg ..\..\JOCN-master\task a\images\kind_dark_chocolate.jpg ..\..\JOCN-master\task a\images\barnum's_animal_crackers.jpg ..\..\JOCN-master\task a\images\lance_captain_wafers_with_honey_and_pb.JPG ..\..\JOCN-master\task a\images\grandmas_chocolate brownie_cookie.jpg ..\..\JOCN-master\task a\images\nutrigrain_apple cinnamon_bar.jpg ..\..\JOCN-master\task a\images\keebler_fudge_stripes.jpg ..\..\JOCN-master\task a\images\welch's_berry.jpg ..\..\JOCN-master\task a\images\haribo_gold_bears.jpg,12,n/a,..\..\JOCN-master\task a\images\grandmas_chocolate brownie_cookie.jpg,n/a,2,7,n/a,1,1
1,1.5,6,..\..\JOCN-master\task a\images\welch's_white_grape_raspberry.jpg ..\..\JOCN-master\task a\images\grandmas_vanilla sandwhich creme_cookies.jpg ..\..\JOCN-master\task a\images\cheez itz_original.jpg ..\..\JOCN-master\task a\images\fritos_original_corn chips.jpg ..\..\JOCN-master\task a\images\nabisco_nutter butter_bites.jpg ..\..\JOCN-master\task a\images\nabisco_teddy graham_honey.jpg,1.5,n/a,1.5,n/a,4,3,n/a,1,1
8,0.5,3,..\..\JOCN-master\task a\images\nabisco_ritz bits_cookies.jpg ..\..\JOCN-master\task a\images\austin_peanut butter_cheese cracker.jpg ..\..\JOCN-master\task a\images\quaker_chewy_chocolate chip.jpg,3,6.79650111124e-06,..\..\JOCN-master\task a\images\nabisco_ritz bits_cookies.jpg,9.43953637034e-06,n/a,n/a,,1,2
5,1.75,3,..\..\JOCN-master\task a\images\jacklinks_beef_jerky_original.jpg ..\..\JOCN-master\task a\images\annie's_honey_bunny_grahams.jpg ..\..\JOCN-master\task a\images\skinny_pop_popcorn.jpg,1.75,n/a,0.75,n/a,6,3,n/a,1,2
5,0.5,12,..\..\JOCN-master\task a\images\combos_cheddar cheese_pretzel.jpg ..\..\JOCN-master\task a\images\quaker_chewy_chocolate chip.jpg ..\..\JOCN-master\task a\images\pirates booty_aged white cheddar_ corn puffs.jpg ..\..\JOCN-master\task a\images\keebler_vanilla_sugar_wafers.jpg ..\..\JOCN-master\task a\images\mini_fudge_stripes.jpg ..\..\JOCN-master\task a\images\nabisco_ritz bits_cookies.jpg ..\..\JOCN-master\task a\images\annie's_chocolate_bunny_grahams.jpg ..\..\JOCN-master\task a\images\planters_salted_cashews.jpg ..\..\JOCN-master\task a\images\austin_peanut_butter.jpg ..\..\JOCN-master\task a\images\keebler_elfin_cookies.jpg ..\..\JOCN-master\task a\images\kettle_salt_pepper.jpg ..\..\JOCN-master\task a\images\chips_ahoy_thin_crisps.jpg,12,2.16849919199,..\..\JOCN-master\task a\images\chips_ahoy_thin_crisps.jpg,3.80760372145,6,5,3.89443219407,0,2
6,1.0,3,..\..\JOCN-master\task a\images\starburst_orignal_candy.jpg ..\..\JOCN-master\task a\images\lays_classic_potato chips.jpg ..\..\JOCN-master\task a\images\nabisco_chips ahhoy_mini.jpg,1.0,n/a,1.25,n/a,7,4,n/a,1,2
3,1.0,3,0.75 1.75 1.5 1.25 1.0 0.5,1.0,6.79644290358e-06,$1.5,3.39822145179e-06,n/a,n/a,,1,1
3,0.5,6,..\..\JOCN-master\task a\images\lance_captain_wafers_with_honey_and_pb.JPG ..\..\JOCN-master\task a\images\nature_valley_chewy.jpg ..\..\JOCN-master\task a\images\planters_honey roasted_peanuts.jpg ..\..\JOCN-master\task a\images\jacklinks_small_batch.jpg ..\..\JOCN-master\task a\images\garden_veggie straws_sea salt.jpg ..\..\JOCN-master\task a\images\fritos_original_corn chips.jpg,6,6.04131491855e-06,..\..\JOCN-master\task a\images\fritos_original_corn chips.jpg,9.06194327399e-06,n/a,n/a,,1,1
4,1.25,12,0.75 1.75 1.25 0.5,1.25,6.41884980723e-06,$1.75,3.39822145179e-06,n/a,n/a,,1,1
7,1.0,6,..\..\JOCN-master\task a\images\keebler_elfin_cookies.jpg ..\..\JOCN-master\task a\images\annie's_chocolate_chip_bunny_grahams.jpg ..\..\JOCN-master\task a\images\kars_mango pinapple_trail mix.jpg ..\..\JOCN-master\task a\images\snyders_mini_pretzels.jpg ..\..\JOCN-master\task a\images\hersey_milk_chocolate.jpg ..\..\JOCN-master\task a\images\austin_lemon ohs_lemon cookies.jpg,6,6.04125671089e-06,..\..\JOCN-master\task a\images\snyders_mini_pretzels.jpg,9.43953637034e-06,n/a,n/a,,1,2
8,1.5,6,1.75 0.75 1.5 1.0,1.5,6.41884980723e-06,$0.75,3.39822145179e-06,n/a,n/a,,1,2
2,1.25,2,0.75 1.5 1.25 1.0,1.25,0.000187280005775,$0.75,0.00049009983195,5,6,n/a,1,1
7,1.5,6,0.75 0.5 1.75 1.5,1.5,6.04125671089e-06,$1.5,3.39822145179e-06,n/a,n/a,,1,2
6,1.25,2,1.5 1.25,1.25,0.000157828791998,$1.25,0.000483303330839,6,5,n/a,1,2
7,0.5,6,..\..\JOCN-master\task a\images\famous_amos_chocolate_chip.jpg ..\..\JOCN-master\task a\images\nabisco_chips ahhoy_mini.jpg ..\..\JOCN-master\task a\images\grandmas_chocolate chip_cookies.jpg ..\..\JOCN-master\task a\images\haribo_gold_bears.jpg ..\..\JOCN-master\task a\images\welch's_mixed fruit_fruit snacks.jpg ..\..\JOCN-master\task a\images\pepperidge farms-goldish-cheddar.jpg,6,7.17403599992e-06,..\..\JOCN-master\task a\images\famous_amos_chocolate_chip.jpg,1.01946643554e-05,n/a,n/a,,1,2
4,1.25,2,1.25 1.75 0.75 1.5,1.25,1.32153509185e-05,$1.5,3.39822145179e-06,n/a,n/a,,1,1
5,1.0,12,..\..\JOCN-master\task a\images\3 musketeers_candy bar.jpg ..\..\JOCN-master\task a\images\lays_classic_potato chips.jpg ..\..\JOCN-master\task a\images\nutrigrain_apple cinnamon_bar.jpg ..\..\JOCN-master\task a\images\fiber one_oats and choc_chewy bar.jpg ..\..\JOCN-master\task a\images\skinny_pop_popcorn.jpg ..\..\JOCN-master\task a\images\keebler_vanilla_sugar_wafers.jpg ..\..\JOCN-master\task a\images\annie's_honey_bunny_grahams.jpg ..\..\JOCN-master\task a\images\combos_cheddar cheese_pretzel.jpg ..\..\JOCN-master\task a\images\lance_choc-o_cookies.jpg ..\..\JOCN-master\task a\images\m&m's_milk_chocholate.jpg ..\..\JOCN-master\task a\images\keebler_chips delux_cookies_crackers.jpg ..\..\JOCN-master\task a\images\larabar_peanut_butter_cookie_bar.jpg,1.0,n/a,1.0,n/a,4,3,n/a,1,2
1,0.75,6,..\..\JOCN-master\task a\images\garden_veggie straws_cheddar.jpg ..\..\JOCN-master\task a\images\kitkat_crisp wafers_milk choc.jpg ..\..\JOCN-master\task a\images\barnum's_animal_crackers.jpg ..\..\JOCN-master\task a\images\kettle_original.jpg ..\..\JOCN-master\task a\images\cheetos_crunchy_chips.jpg ..\..\JOCN-master\task a\images\cheez itz_original.jpg,6,n/a,..\..\JOCN-master\task a\images\cheez itz_original.jpg,n/a,5,2,n/a,1,1
3,1.0,2,1.5 1.0 1.25 0.75,1.0,9.81707125902e-06,$1.5,3.77581454813e-06,n/a,n/a,,1,1
1,1.0,12,..\..\JOCN-master\task a\images\nabisco_teddy graham_honey.jpg ..\..\JOCN-master\task a\images\nabisco_nutter butter_cookies and crackers.jpg ..\..\JOCN-master\task a\images\grandmas_vanilla sandwhich creme_cookies.jpg ..\..\JOCN-master\task a\images\hersey_milk_chocolate.jpg ..\..\JOCN-master\task a\images\nabisco_ritz bits_cookies.jpg ..\..\JOCN-master\task a\images\pepperidge farms-goldish-cheddar.jpg ..\..\JOCN-master\task a\images\barnum's_animal_crackers.jpg ..\..\JOCN-master\task a\images\cheez itz_original.jpg ..\..\JOCN-master\task a\images\welch's_berry.jpg ..\..\JOCN-master\task a\images\pirates booty_aged white cheddar_ corn puffs.jpg ..\..\JOCN-master\task a\images\skittles_darkside_candy.jpg ..\..\JOCN-master\task a\images\kettle_original.jpg,1.0,n/a,0.5,n/a,4,4,n/a,1,1
6,1.0,6,..\..\JOCN-master\task a\images\jacklinks_beef_stick.jpg ..\..\JOCN-master\task a\images\skittles_original_candy.jpg ..\..\JOCN-master\task a\images\larabar_cashew_cookie_bar.jpg ..\..\JOCN-master\task a\images\planters_honey roasted_peanuts.jpg ..\..\JOCN-master\task a\images\chex mix_original_traditional.jpg ..\..\JOCN-master\task a\images\3 musketeers_candy bar.jpg,6,n/a,..\..\JOCN-master\task a\images\3 musketeers_candy bar.jpg,n/a,2,3,n/a,1,2
6,1.75,2,..\..\JOCN-master\task a\images\doritos_nacho cheesier_chips.jpg ..\..\JOCN-master\task a\images\kars_mango pinapple_trail mix.jpg,1.75,n/a,0.5,n/a,1,4,n/a,1,2
2,1.25,2,..\..\JOCN-master\task a\images\nabisco_oreo_mini.jpg ..\..\JOCN-master\task a\images\nutrigrain_blueberry_bar.jpg,2,n/a,..\..\JOCN-master\task a\images\nabisco_oreo_mini.jpg,n/a,1,1,n/a,1,1
5,1.25,2,..\..\JOCN-master\task a\images\cheetos_crunchy_chips.jpg ..\..\JOCN-master\task a\images\baked_ruffles_cheddar &sour.JPG,1.25,n/a,0.75,n/a,6,3,n/a,1,2
1,1.75,12,..\..\JOCN-master\task a\images\teddy_grahams_chocolate.jpg ..\..\JOCN-master\task a\images\nabisco_oreo_mini.jpg ..\..\JOCN-master\task a\images\lance_toast_cheese_with_pb.JPG ..\..\JOCN-master\task a\images\baked_ruffles_cheddar &sour.JPG ..\..\JOCN-master\task a\images\quaker_chewy_dark choc chunk.jpg ..\..\JOCN-master\task a\images\cheetos_crunchy_chips.jpg ..\..\JOCN-master\task a\images\grandma's_peanut butter_cookies.jpg ..\..\JOCN-master\task a\images\pepperidge farms-goldish-cheddar.jpg ..\..\JOCN-master\task a\images\quaker_chewy_chocolate chip.jpg ..\..\JOCN-master\task a\images\mini_fudge_stripes.jpg ..\..\JOCN-master\task a\images\lance_toasty_with_pb.jpg ..\..\JOCN-master\task a\images\welch's_tropical_fruits.jpg,12,1.78606802499,..\..\JOCN-master\task a\images\nabisco_oreo_mini.jpg,2.24778322334,7,7,3.11133799521,0,1
7,1.5,3,..\..\JOCN-master\task a\images\skittles_sour_candy.jpg ..\..\JOCN-master\task a\images\combos_cheddar cheese_pretzel.jpg ..\..\JOCN-master\task a\images\nabisco_teddy graham_honey.jpg,3,6.79644290358e-06,..\..\JOCN-master\task a\images\skittles_sour_candy.jpg,1.47256650962e-05,n/a,n/a,,1,2
2,0.75,3,..\..\JOCN-master\task a\images\starburst_favereds_candy.jpg ..\..\JOCN-master\task a\images\annie's_honey_bunny_grahams.jpg ..\..\JOCN-master\task a\images\kind_dark_chocolate.jpg,3,1.87849186693,..\..\JOCN-master\task a\images\annie's_honey_bunny_grahams.jpg,2.46473395661,6,6,4.17609989276,0,1
1,0.75,12,..\..\JOCN-master\task a\images\nature valley_oats and honey_crunchy.jpg ..\..\JOCN-master\task a\images\swedish fish_original_candy.jpg ..\..\JOCN-master\task a\images\quaker_chewy_peanut butter choc chip.jpg ..\..\JOCN-master\task a\images\starburst_orignal_candy.jpg ..\..\JOCN-master\task a\images\nature_valley_chewy.jpg ..\..\JOCN-master\task a\images\kettle_salt_pepper.jpg ..\..\JOCN-master\task a\images\baked_lays_sour cream and onion.jpg ..\..\JOCN-master\task a\images\skittles_wild berry_candy.jpg ..\..\JOCN-master\task a\images\cliff_chocolate chip_bar.jpg ..\..\JOCN-master\task a\images\cheez itz_original.jpg ..\..\JOCN-master\task a\images\nutrigrain_apple cinnamon_bar.jpg ..\..\JOCN-master\task a\images\lance_toasty_with_pb.jpg,12,2.11317303771,..\..\JOCN-master\task a\images\cheez itz_original.jpg,2.50946028606,6,7,3.79411276075,0,1
5,1.0,6,..\..\JOCN-master\task a\images\kettle_original.jpg ..\..\JOCN-master\task a\images\grandma's_peanut butter_cookies.jpg ..\..\JOCN-master\task a\images\kashi_chocolate almond _bars.jpg ..\..\JOCN-master\task a\images\swedish fish_original_candy.jpg ..\..\JOCN-master\task a\images\welch's_tropical_fruits.jpg ..\..\JOCN-master\task a\images\starburst_favereds_candy.jpg,6,2.09707639209,..\..\JOCN-master\task a\images\kashi_chocolate almond _bars.jpg,1.94390207063,6,7,3.69464552723,0,2
7,1.5,2,..\..\JOCN-master\task a\images\pringles_cheddar_potato crisps.jpg ..\..\JOCN-master\task a\images\twix_milk chocolate_cookie bars.jpg,2,6.04125671089e-06,..\..\JOCN-master\task a\images\twix_milk chocolate_cookie bars.jpg,1.01946643554e-05,n/a,n/a,,1,2
1,1.25,12,..\..\JOCN-master\task a\images\austin_lemon ohs_lemon cookies.jpg ..\..\JOCN-master\task a\images\kettle_salt_pepper.jpg ..\..\JOCN-master\task a\images\famous_amos_chocolate_chip.jpg ..\..\JOCN-master\task a\images\welch's_white_grape_raspberry.jpg ..\..\JOCN-master\task a\images\lance_toasty_with_pb.jpg ..\..\JOCN-master\task a\images\lance_van-o_cookies.jpg ..\..\JOCN-master\task a\images\pringles_the original_potato crisps.jpg ..\..\JOCN-master\task a\images\cheez-it_white_cheddar.JPG ..\..\JOCN-master\task a\images\pringles_sour cream and onion_potato crisps.jpg ..\..\JOCN-master\task a\images\annie's_cheddar_bunnies.jpg ..\..\JOCN-master\task a\images\nutrigrain_strawberry_bar.jpg ..\..\JOCN-master\task a\images\baked_lays_classic.jpg,12,n/a,..\..\JOCN-master\task a\images\famous_amos_chocolate_chip.jpg,n/a,1,7,n/a,1,1
4,0.5,12,1.0 0.75 1.5 1.75 1.25 0.5,0.5,7.17403599992e-06,$0.75,3.39827965945e-06,n/a,n/a,,1,1
6,1.25,6,..\..\JOCN-master\task a\images\baked_lays_sour cream and onion.jpg ..\..\JOCN-master\task a\images\austin_cheddar cheese_cheese cracker.jpg ..\..\JOCN-master\task a\images\annie's_honey_bunny_grahams.jpg ..\..\JOCN-master\task a\images\nestle_crunch_bar.jpg ..\..\JOCN-master\task a\images\kettle_salt_pepper.jpg ..\..\JOCN-master\task a\images\kitkat_crisp wafers_milk choc.jpg,6,n/a,..\..\JOCN-master\task a\images\baked_lays_sour cream and onion.jpg,n/a,7,7,n/a,1,2
7,0.75,3,..\..\JOCN-master\task a\images\pringles_the original_potato crisps.jpg ..\..\JOCN-master\task a\images\kitkat_crisp wafers_milk choc.jpg ..\..\JOCN-master\task a\images\belvita_blueberry.JPG,3,6.79644290358e-06,..\..\JOCN-master\task a\images\pringles_the original_potato crisps.jpg,8.68440838531e-06,n/a,n/a,,1,2
2,1.25,6,..\..\JOCN-master\task a\images\wheat_thins.jpg ..\..\JOCN-master\task a\images\snyders_mini_pretzels.jpg ..\..\JOCN-master\task a\images\belvita_blueberry.JPG ..\..\JOCN-master\task a\images\quaker_chewy_peanut butter choc chip.jpg ..\..\JOCN-master\task a\images\quaker_chewy_dark choc chunk.jpg ..\..\JOCN-master\task a\images\kars_mango pinapple_trail mix.jpg,6,1.59283804806,..\..\JOCN-master\task a\images\snyders_mini_pretzels.jpg,2.98749981122,5,5,4.18473818549,0,1
5,1.25,2,..\..\JOCN-master\task a\images\planters_salted_cashews.jpg ..\..\JOCN-master\task a\images\haribo_gold_bears.jpg,2,1.59757706418,..\..\JOCN-master\task a\images\haribo_gold_bears.jpg,2.60912839253,5,6,n/a,1,2
3,1.0,2,..\..\JOCN-master\task a\images\lance_toasty_with_pb.jpg ..\..\JOCN-master\task a\images\keebler_vanilla_sugar_wafers.jpg,2,9.81712946668e-06,..\..\JOCN-master\task a\images\keebler_vanilla_sugar_wafers.jpg,1.05722574517e-05,n/a,n/a,,1,1
4,0.5,3,0.75 0.5,0.5,7.17403599992e-06,$0.5,3.39822145179e-06,n/a,n/a,,1,1
8,1.0,2,..\..\JOCN-master\task a\images\welch's_mixed fruit_fruit snacks.jpg ..\..\JOCN-master\task a\images\lays_kc masterpiece_barbecue chips.jpg,2,5.6637218222e-06,..\..\JOCN-master\task a\images\welch's_mixed fruit_fruit snacks.jpg,9.43947816268e-06,n/a,n/a,,1,2
7,0.75,3,1.25 1.5 0.75,0.75,6.41884980723e-06,$0.75,3.39822145179e-06,n/a,n/a,,1,2
3,1.25,2,1.0 1.5 1.25 0.5,1.25,6.04131491855e-06,$1.25,3.77581454813e-06,n/a,n/a,,1,1
5,1.5,6,..\..\JOCN-master\task a\images\kind bar_peanut butter_bar.jpg ..\..\JOCN-master\task a\images\baked_lays_classic.jpg ..\..\JOCN-master\task a\images\nabisco_nutter butter_bites.jpg ..\..\JOCN-master\task a\images\m&m's_peanut_butter.jpg ..\..\JOCN-master\task a\images\kettle_original.jpg ..\..\JOCN-master\task a\images\swedish fish_original_candy.jpg,1.5,n/a,1.5,n/a,7,1,n/a,1,2
8,1.5,3,..\..\JOCN-master\task a\images\snyders_mini_pretzels.jpg ..\..\JOCN-master\task a\images\skittles_darkside_candy.jpg ..\..\JOCN-master\task a\images\3 musketeers_candy bar.jpg,3,6.41884980723e-06,..\..\JOCN-master\task a\images\snyders_mini_pretzels.jpg,9.81707125902e-06,n/a,n/a,,1,2
5,1.0,2,..\..\JOCN-master\task a\images\planters_salted_cashews.jpg ..\..\JOCN-master\task a\images\welch's_tropical_fruits.jpg,2,n/a,..\..\JOCN-master\task a\images\planters_salted_cashews.jpg,n/a,4,7,n/a,1,2
4,0.5,6,1.5 1.0 1.25 0.5,0.5,6.41884980723e-06,$0.5,3.39822145179e-06,n/a,n/a,,1,1
7,0.75,2,1.75 0.75 1.0,0.75,6.04131491855e-06,$1.75,3.77581454813e-06,n/a,n/a,,1,2
8,1.0,3,..\..\JOCN-master\task a\images\kettle_salt_vinegar.jpg ..\..\JOCN-master\task a\images\larabar_cashew_cookie_bar.jpg ..\..\JOCN-master\task a\images\combos_cheddar cheese_pretzel.jpg,3,6.04131491855e-06,..\..\JOCN-master\task a\images\kettle_salt_vinegar.jpg,1.13273854367e-05,n/a,n/a,,1,2
4,1.5,12,..\..\JOCN-master\task a\images\m&m's_peanut_butter.jpg ..\..\JOCN-master\task a\images\nabisco_chips ahhoy_mini.jpg ..\..\JOCN-master\task a\images\austin_peanut_butter.jpg ..\..\JOCN-master\task a\images\larabar_cashew_cookie_bar.jpg ..\..\JOCN-master\task a\images\fig_newtons.jpg ..\..\JOCN-master\task a\images\planters_salted_peanuts.jpg ..\..\JOCN-master\task a\images\lance_toasty_with_pb.jpg ..\..\JOCN-master\task a\images\larabar_apple_pie_bar.jpg ..\..\JOCN-master\task a\images\lance_captain_wafers_with_honey_and_pb.JPG ..\..\JOCN-master\task a\images\keebler_elfin_cookies.jpg ..\..\JOCN-master\task a\images\combos_cheddar cheese_pretzel.jpg ..\..\JOCN-master\task a\images\kellogg's_rice krispies_orignal.jpg,12,6.04131491855e-06,..\..\JOCN-master\task a\images\kellogg's_rice krispies_orignal.jpg,1.39704789035e-05,n/a,n/a,,1,1
5,0.5,6,..\..\JOCN-master\task a\images\starburst_orignal_candy.jpg ..\..\JOCN-master\task a\images\lays_classic_potato chips.jpg ..\..\JOCN-master\task a\images\keebler_fudge_stripes.jpg ..\..\JOCN-master\task a\images\haribo_gold_bears.jpg ..\..\JOCN-master\task a\images\nestle_crunch_bar.jpg ..\..\JOCN-master\task a\images\kitkat_crisp wafers_milk choc.jpg,0.5,n/a,0.75,n/a,6,6,n/a,1,2
2,1.25,12,..\..\JOCN-master\task a\images\garden_veggie straws_zesty ranch.jpg ..\..\JOCN-master\task a\images\sourpatchkids_original_candy.jpg ..\..\JOCN-master\task a\images\kettle_original.jpg ..\..\JOCN-master\task a\images\basils_lemon.jpg ..\..\JOCN-master\task a\images\baked_lays_barbeque.jpg ..\..\JOCN-master\task a\images\pringles_sour cream and onion_potato crisps.jpg ..\..\JOCN-master\task a\images\doritos_nacho cheesier_chips.jpg ..\..\JOCN-master\task a\images\keebler_vanilla_sugar_wafers.jpg ..\..\JOCN-master\task a\images\nabisco_nutter butter_bites.jpg ..\..\JOCN-master\task a\images\pringles_cheddar_potato crisps.jpg ..\..\JOCN-master\task a\images\garden_veggie straws_sea salt.jpg ..\..\JOCN-master\task a\images\sensible_portions_cinnamon_apple_straws.jpg,12,2.41529164335,..\..\JOCN-master\task a\images\nabisco_nutter butter_bites.jpg,1.78014567064,6,1,n/a,1,1
6,0.5,12,..\..\JOCN-master\task a\images\lance_toast_cheese_with_pb.JPG ..\..\JOCN-master\task a\images\cheez-it_white_cheddar.JPG ..\..\JOCN-master\task a\images\belvita_blueberry.JPG ..\..\JOCN-master\task a\images\reeses_peanut butter cups_milk choc.jpg ..\..\JOCN-master\task a\images\planters_honey roasted_peanuts.jpg ..\..\JOCN-master\task a\images\garden_veggie straws_zesty ranch.jpg ..\..\JOCN-master\task a\images\snyders_mini_pretzels.jpg ..\..\JOCN-master\task a\images\cliff_chocolate chip_bar.jpg ..\..\JOCN-master\task a\images\poptarts_brown_sugar.jpg ..\..\JOCN-master\task a\images\nestle_crunch_bar.jpg ..\..\JOCN-master\task a\images\kitkat_crisp wafers_milk choc.jpg ..\..\JOCN-master\task a\images\annie's_chocolate_bunny_grahams.jpg,12,1.0521095437,..\..\JOCN-master\task a\images\cheez-it_white_cheddar.JPG,2.06403543218,3,2,n/a,1,2
8,1.5,6,1.25 1.5,1.5,6.41890801489e-06,$1.25,3.39827965945e-06,n/a,n/a,,1,2
6,1.75,2,..\..\JOCN-master\task a\images\cliff_chocolate chip_bar.jpg ..\..\JOCN-master\task a\images\lance_van-o_cookies.jpg,2,2.64438763948,..\..\JOCN-master\task a\images\cliff_chocolate chip_bar.jpg,2.37433998886,3,4,n/a,1,2
3,1.25,2,..\..\JOCN-master\task a\images\pirates booty_aged white cheddar_ corn puffs.jpg ..\..\JOCN-master\task a\images\grandmas_vanilla sandwhich creme_cookies.jpg,2,6.41884980723e-06,..\..\JOCN-master\task a\images\pirates booty_aged white cheddar_ corn puffs.jpg,1.05722574517e-05,n/a,n/a,,1,1
6,1.5,3,..\..\JOCN-master\task a\images\mini_cheese_nips.jpg ..\..\JOCN-master\task a\images\kashi_chocolate almond _bars.jpg ..\..\JOCN-master\task a\images\nestle_butterfinger_bar.jpg,3,2.30937193218,..\..\JOCN-master\task a\images\kashi_chocolate almond _bars.jpg,1.73525320564,7,5,2.69289619551,0,2
6,0.5,6,..\..\JOCN-master\task a\images\pepperidge farms-goldish-cheddar.jpg ..\..\JOCN-master\task a\images\nabisco_chips ahhoy_mini.jpg ..\..\JOCN-master\task a\images\nabisco_nutter butter_cookies and crackers.jpg ..\..\JOCN-master\task a\images\nabisco_mini_ritz.jpg ..\..\JOCN-master\task a\images\kettle_salt_vinegar.jpg ..\..\JOCN-master\task a\images\nestle_crunch_bar.jpg,6,1.03091102687,..\..\JOCN-master\task a\images\nabisco_nutter butter_cookies and crackers.jpg,2.80139818159,7,7,2.58933485369,0,2
2,1.25,6,..\..\JOCN-master\task a\images\skittles_original_candy.jpg ..\..\JOCN-master\task a\images\larabar_cashew_cookie_bar.jpg ..\..\JOCN-master\task a\images\kind_dark_chocolate.jpg ..\..\JOCN-master\task a\images\austin_peanut butter_cheese cracker.jpg ..\..\JOCN-master\task a\images\nabisco_teddy graham_honey.jpg ..\..\JOCN-master\task a\images\grandmas_vanilla sandwhich creme_cookies.jpg,6,1.68045604206,..\..\JOCN-master\task a\images\austin_peanut butter_cheese cracker.jpg,2.08945341408,6,5,n/a,1,1
3,1.25,6,..\..\JOCN-master\task a\images\lance_van-o_cookies.jpg ..\..\JOCN-master\task a\images\nestle_butterfinger_bar.jpg ..\..\JOCN-master\task a\images\jacklinks_beef_steak.jpg ..\..\JOCN-master\task a\images\belvita_banana_bread.jpg ..\..\JOCN-master\task a\images\m&m's_milk_chocholate.jpg ..\..\JOCN-master\task a\images\milkyway_orginal_candy.jpg,6,9.81707125902e-06,..\..\JOCN-master\task a\images\jacklinks_beef_steak.jpg,1.17050367408e-05,n/a,n/a,,1,1
3,1.75,6,1.75 0.75 0.5,1.75,5.28612872586e-06,$1.75,3.39822145179e-06,n/a,n/a,,1,1
6,0.75,3,..\..\JOCN-master\task a\images\twix_milk chocolate_cookie bars.jpg ..\..\JOCN-master\task a\images\annie's_honey_bunny_grahams.jpg ..\..\JOCN-master\task a\images\jacklinks_beef_steak.jpg,3,3.72756264068,..\..\JOCN-master\task a\images\annie's_honey_bunny_grahams.jpg,0.00089033547556,3,6,n/a,1,2
2,0.5,12,..\..\JOCN-master\task a\images\keebler_vanilla_sugar_wafers.jpg ..\..\JOCN-master\task a\images\fritos_original_corn chips.jpg ..\..\JOCN-master\task a\images\kashi_chocolate almond _bars.jpg ..\..\JOCN-master\task a\images\keebler_elfin_cookies.jpg ..\..\JOCN-master\task a\images\reeses_peanut butter cups_milk choc.jpg ..\..\JOCN-master\task a\images\nutrigrain_strawberry_bar.jpg ..\..\JOCN-master\task a\images\lance_van-o_cookies.jpg ..\..\JOCN-master\task a\images\baked_cheetos_crunchy.jpg ..\..\JOCN-master\task a\images\planters_honey roasted_peanuts.jpg ..\..\JOCN-master\task a\images\lays_classic_potato chips.jpg ..\..\JOCN-master\task a\images\larabar_peanut_butter_cookie_bar.jpg ..\..\JOCN-master\task a\images\ritz_toasted_chips.jpg,12,1.73441950732,..\..\JOCN-master\task a\images\lays_classic_potato chips.jpg,2.20583513315,7,6,3.42397335789,0,1
1,0.75,12,..\..\JOCN-master\task a\images\barnum's_animal_crackers.jpg ..\..\JOCN-master\task a\images\sunchips_harvest cheddar_chips.jpg ..\..\JOCN-master\task a\images\pirates booty_aged white cheddar_ corn puffs.jpg ..\..\JOCN-master\task a\images\basils_lemon.jpg ..\..\JOCN-master\task a\images\nestle_crunch_bar.jpg ..\..\JOCN-master\task a\images\grandma's_peanut butter_cookies.jpg ..\..\JOCN-master\task a\images\keebler_cheese_and_peanut_butter.jpg ..\..\JOCN-master\task a\images\kind bar_peanut butter_bar.jpg ..\..\JOCN-master\task a\images\pringles_cheddar_potato crisps.jpg ..\..\JOCN-master\task a\images\nabisco_nutter butter_bites.jpg ..\..\JOCN-master\task a\images\nutrigrain_strawberry_bar.jpg ..\..\JOCN-master\task a\images\pringles_the original_potato crisps.jpg,12,2.99502650619,..\..\JOCN-master\task a\images\pringles_cheddar_potato crisps.jpg,2.51986603433,7,6,3.93203621753,0,1
2,1.5,6,..\..\JOCN-master\task a\images\belvita_blueberry.JPG ..\..\JOCN-master\task a\images\m&m's_peanut.jpg ..\..\JOCN-master\task a\images\m&m's_peanut_butter.jpg ..\..\JOCN-master\task a\images\nutrigrain_strawberry_bar.jpg ..\..\JOCN-master\task a\images\baked_lays_classic.jpg ..\..\JOCN-master\task a\images\belvita_banana_bread.jpg,6,1.66253115039,..\..\JOCN-master\task a\images\baked_lays_classic.jpg,2.5422996179,5,6,3.51339732064,0,1
5,1.75,6,..\..\JOCN-master\task a\images\planters_salted_cashews.jpg ..\..\JOCN-master\task a\images\snyders_mini_pretzels.jpg ..\..\JOCN-master\task a\images\kettle_salt_pepper.jpg ..\..\JOCN-master\task a\images\keebler_cheese_and_peanut_butter.jpg ..\..\JOCN-master\task a\images\baked_ruffles_cheddar &sour.JPG ..\..\JOCN-master\task a\images\welch's_tropical_fruits.jpg,6,1.92984398367,..\..\JOCN-master\task a\images\snyders_mini_pretzels.jpg,2.93193804653,6,5,3.98983854649,0,2
2,0.5,2,..\..\JOCN-master\task a\images\keebler_vanilla_sugar_wafers.jpg ..\..\JOCN-master\task a\images\quaker_chewy_peanut butter choc chip.jpg,2,2.113831161,..\..\JOCN-master\task a\images\keebler_vanilla_sugar_wafers.jpg,1.88461018563,6,7,n/a,1,1
4,0.5,12,..\..\JOCN-master\task a\images\starburst_favereds_candy.jpg ..\..\JOCN-master\task a\images\kind_dark_chocolate.jpg ..\..\JOCN-master\task a\images\kars_mango pinapple_trail mix.jpg ..\..\JOCN-master\task a\images\welch's_tropical_fruits.jpg ..\..\JOCN-master\task a\images\nestle_butterfinger_bar.jpg ..\..\JOCN-master\task a\images\garden_veggie straws_sea salt.jpg ..\..\JOCN-master\task a\images\twix_milk chocolate_cookie bars.jpg ..\..\JOCN-master\task a\images\snyders_mini_pretzels.jpg ..\..\JOCN-master\task a\images\barnum's_animal_crackers.jpg ..\..\JOCN-master\task a\images\doritos_nacho cheesier_chips.jpg ..\..\JOCN-master\task a\images\larabar_cashew_cookie_bar.jpg ..\..\JOCN-master\task a\images\jacklinks_small_batch.jpg,12,6.04131491855e-06,..\..\JOCN-master\task a\images\doritos_nacho cheesier_chips.jpg,9.43947816268e-06,n/a,n/a,,1,1
4,1.0,6,..\..\JOCN-master\task a\images\jacklinks_beef_steak.jpg ..\..\JOCN-master\task a\images\skittles_sour_candy.jpg ..\..\JOCN-master\task a\images\grandmas_chocolate brownie_cookie.jpg ..\..\JOCN-master\task a\images\m&m's_peanut_butter.jpg ..\..\JOCN-master\task a\images\teddy_grahams_chocolate.jpg ..\..\JOCN-master\task a\images\swedish fish_original_candy.jpg,6,6.41890801489e-06,..\..\JOCN-master\task a\images\swedish fish_original_candy.jpg,9.06194327399e-06,n/a,n/a,,1,1
8,1.5,2,..\..\JOCN-master\task a\images\kettle_original.jpg ..\..\JOCN-master\task a\images\keebler_fudge_stripes.jpg,2,6.04131491855e-06,..\..\JOCN-master\task a\images\keebler_fudge_stripes.jpg,8.68435017765e-06,n/a,n/a,,1,2
5,1.75,6,..\..\JOCN-master\task a\images\keebler_vanilla_sugar_wafers.jpg ..\..\JOCN-master\task a\images\mini_fudge_stripes.jpg ..\..\JOCN-master\task a\images\poptarts_brown_sugar.jpg ..\..\JOCN-master\task a\images\famous_amos_chocolate_chip.jpg ..\..\JOCN-master\task a\images\planters_salted_peanuts.jpg ..\..\JOCN-master\task a\images\basils_lemon.jpg,6,n/a,..\..\JOCN-master\task a\images\mini_fudge_stripes.jpg,n/a,6,3,n/a,1,2
6,0.75,3,..\..\JOCN-master\task a\images\austin_cheddar cheese_cheese cracker.jpg ..\..\JOCN-master\task a\images\kettle_salt_pepper.jpg ..\..\JOCN-master\task a\images\lance_van-o_cookies.jpg,0.75,n/a,0.75,n/a,3,3,n/a,1,2
2,1.5,12,..\..\JOCN-master\task a\images\sun chips_french onion_chips.jpg ..\..\JOCN-master\task a\images\basils_lemon.jpg ..\..\JOCN-master\task a\images\poptarts_strawberry_frosted.jpg ..\..\JOCN-master\task a\images\lance_toast_cheese_with_pb.JPG ..\..\JOCN-master\task a\images\grandmas_vanilla sandwhich creme_cookies.jpg ..\..\JOCN-master\task a\images\hersheys_milk choc_almond.jpg ..\..\JOCN-master\task a\images\sensible_portions_cinnamon_apple_straws.jpg ..\..\JOCN-master\task a\images\keebler_elfin_cookies.jpg ..\..\JOCN-master\task a\images\lance_choc-o_cookies.jpg ..\..\JOCN-master\task a\images\kind_dark_chocolate.jpg ..\..\JOCN-master\task a\images\barnum's_animal_crackers.jpg ..\..\JOCN-master\task a\images\cliff_chocolate chip_bar.jpg,12,1.48502061592,..\..\JOCN-master\task a\images\poptarts_strawberry_frosted.jpg,2.6811398408,3,7,n/a,1,1
5,1.0,6,..\..\JOCN-master\task a\images\cheez-it_white_cheddar.JPG ..\..\JOCN-master\task a\images\pepperidge farms-goldish-cheddar.jpg ..\..\JOCN-master\task a\images\kettle_jalepeno.jpg ..\..\JOCN-master\task a\images\jacklinks_beef_jerky_original.jpg ..\..\JOCN-master\task a\images\quaker_chewy_peanut butter choc chip.jpg ..\..\JOCN-master\task a\images\larabar_peanut_butter_cookie_bar.jpg,6,3.10281637491,..\..\JOCN-master\task a\images\cheez-it_white_cheddar.JPG,0.543914530834,6,6,n/a,1,2
1,1.0,3,..\..\JOCN-master\task a\images\fig_newtons.jpg ..\..\JOCN-master\task a\images\snyders_mini_pretzels.jpg ..\..\JOCN-master\task a\images\skittles_original_candy.jpg,3,0.902250758896,..\..\JOCN-master\task a\images\skittles_original_candy.jpg,3.597585371,5,5,n/a,1,1
2,0.75,6,..\..\JOCN-master\task a\images\fritos_original_corn chips.jpg ..\..\JOCN-master\task a\images\baked_ruffles_cheddar &sour.JPG ..\..\JOCN-master\task a\images\kettle_bbq.jpg ..\..\JOCN-master\task a\images\austin_vanilla creme_vanilla cookies.jpg ..\..\JOCN-master\task a\images\poptarts_strawberry_frosted.jpg ..\..\JOCN-master\task a\images\nature valley_oats and honey_crunchy.jpg,6,3.51606568397,..\..\JOCN-master\task a\images\fritos_original_corn chips.jpg,1.48063803592,6,7,2.15105005214,0,1
7,1.75,2,1.75 0.75,1.75,6.41890801489e-06,$0.75,3.39822145179e-06,n/a,n/a,,1,2
5,1.75,12,..\..\JOCN-master\task a\images\wheat_thins.jpg ..\..\JOCN-master\task a\images\grandmas_chocolate brownie_cookie.jpg ..\..\JOCN-master\task a\images\pringles_cheddar_potato crisps.jpg ..\..\JOCN-master\task a\images\sun chips_garden salsa_chips.jpg ..\..\JOCN-master\task a\images\jacklinks_small_batch.jpg ..\..\JOCN-master\task a\images\sensible_portions_cinnamon_apple_straws.jpg ..\..\JOCN-master\task a\images\kitkat_crisp wafers_milk choc.jpg ..\..\JOCN-master\task a\images\starburst_orignal_candy.jpg ..\..\JOCN-master\task a\images\skinny_pop_popcorn.jpg ..\..\JOCN-master\task a\images\nabisco_chips ahhoy_mini.jpg ..\..\JOCN-master\task a\images\pirates booty_aged white cheddar_ corn puffs.jpg ..\..\JOCN-master\task a\images\basils_lemon.jpg,12,3.74573069433,..\..\JOCN-master\task a\images\pringles_cheddar_potato crisps.jpg,2.33259352675,5,7,4.1662333298,0,2
8,0.75,6,1.0 0.75 1.25 1.5,0.75,5.6637218222e-06,$0.75,3.77581454813e-06,n/a,n/a,,1,2
2,1.5,12,..\..\JOCN-master\task a\images\doritos_nacho cheesier_chips.jpg ..\..\JOCN-master\task a\images\m&m's_milk_chocholate.jpg ..\..\JOCN-master\task a\images\skittles_darkside_candy.jpg ..\..\JOCN-master\task a\images\kind bar_peanut butter_bar.jpg ..\..\JOCN-master\task a\images\quaker_chewy_peanut butter choc chip.jpg ..\..\JOCN-master\task a\images\annie's_honey_bunny_grahams.jpg ..\..\JOCN-master\task a\images\sourpatchkids_original_candy.jpg ..\..\JOCN-master\task a\images\keebler_vanilla_sugar_wafers.jpg ..\..\JOCN-master\task a\images\grandmas_chocolate chip_cookies.jpg ..\..\JOCN-master\task a\images\pirates booty_aged white cheddar_ corn puffs.jpg ..\..\JOCN-master\task a\images\m&m's_peanut.jpg ..\..\JOCN-master\task a\images\welch's_tropical_fruits.jpg,1.5,n/a,1.0,n/a,2,1,n/a,1,1
4,0.5,6,..\..\JOCN-master\task a\images\larabar_peanut_butter_cookie_bar.jpg ..\..\JOCN-master\task a\images\milkyway_orginal_candy.jpg ..\..\JOCN-master\task a\images\mini_fudge_stripes.jpg ..\..\JOCN-master\task a\images\kettle_original.jpg ..\..\JOCN-master\task a\images\welch's_white_grape_raspberry.jpg ..\..\JOCN-master\task a\images\quaker_chewy_dark choc chunk.jpg,6,6.79644290358e-06,..\..\JOCN-master\task a\images\larabar_peanut_butter_cookie_bar.jpg,1.05722574517e-05,n/a,n/a,,1,1
1,1.25,3,..\..\JOCN-master\task a\images\nutrigrain_apple cinnamon_bar.jpg ..\..\JOCN-master\task a\images\grandmas_oatmeal raisin_cookies.jpg ..\..\JOCN-master\task a\images\basil_vanilla.jpg,1.25,n/a,1.0,n/a,3,6,n/a,1,1
6,1.5,2,..\..\JOCN-master\task a\images\lance_toast_cheese_with_pb.JPG ..\..\JOCN-master\task a\images\twix_milk chocolate_cookie bars.jpg,2,0.753213212301,..\..\JOCN-master\task a\images\lance_toast_cheese_with_pb.JPG,1.23762818868,6,6,3.55764487776,0,2
4,1.0,2,0.75 1.5 1.0 1.25 0.5 1.75,1.0,9.06188506633e-06,$1.5,3.77575634047e-06,n/a,n/a,,1,1
6,1.0,3,..\..\JOCN-master\task a\images\sensible_portions_cinnamon_apple_straws.jpg ..\..\JOCN-master\task a\images\pirates booty_aged white cheddar_ corn puffs.jpg ..\..\JOCN-master\task a\images\m&m's_milk_chocholate.jpg,3,n/a,..\..\JOCN-master\task a\images\pirates booty_aged white cheddar_ corn puffs.jpg,n/a,2,6,n/a,1,2
