Trial Type, Money Option, Item Option, Trial Options, Choice 1, Choice 1 RT, Choice 2, Choice 2 RT, Decision Rating , Selected Option Rating, PostChoiceRT, Computer Response, Choosing For
5,1.0,6,..\..\JOCN-master\task a\images\swedish fish_original_candy.jpg ..\..\JOCN-master\task a\images\garden_veggie straws_zesty ranch.jpg ..\..\JOCN-master\task a\images\sourpatch_watermelon_candy.jpg ..\..\JOCN-master\task a\images\austin_peanut_butter.jpg ..\..\JOCN-master\task a\images\keebler_fudge_stripes.jpg ..\..\JOCN-master\task a\images\cheetos_crunchy_chips.jpg,6,n/a,..\..\JOCN-master\task a\images\garden_veggie straws_zesty ranch.jpg,n/a,5,4,n/a,1,2
3,1.5,12,0.75 1.5 1.75,1.5,6.25778920949e-06,$1.5,5.11994585395e-06,n/a,n/a,,1,1
5,1.25,3,1.75 1.5 1.25,1.25,2.29563440476,$1.25,1.26649251068,5,2,n/a,1,2
8,1.0,6,0.5 1.0,1.0,6.25778920949e-06,$1.0,4.5511405915e-06,n/a,n/a,,1,2
7,1.25,3,1.75 1.25 0.5,1.25,5.12017868459e-06,$0.5,4.5511405915e-06,n/a,n/a,,1,2
1,1.75,6,..\..\JOCN-master\task a\images\nabisco_teddy graham_honey.jpg ..\..\JOCN-master\task a\images\nabisco_mini_ritz.jpg ..\..\JOCN-master\task a\images\lays_kc masterpiece_barbecue chips.jpg ..\..\JOCN-master\task a\images\pirates booty_aged white cheddar_ corn puffs.jpg ..\..\JOCN-master\task a\images\grandmas_chocolate chip_cookies.jpg ..\..\JOCN-master\task a\images\basil_vanilla.jpg,6,1.34276228468,..\..\JOCN-master\task a\images\pirates booty_aged white cheddar_ corn puffs.jpg,3.44026241684,7,7,3.14968315745,0,1
6,0.5,3,..\..\JOCN-master\task a\images\snickers_milk chocolate_candy bar.jpg ..\..\JOCN-master\task a\images\austin_cheddar cheese_cheese cracker.jpg ..\..\JOCN-master\task a\images\nabisco_nutter butter_cookies and crackers.jpg,3,1.57005210454,..\..\JOCN-master\task a\images\snickers_milk chocolate_candy bar.jpg,3.30274494505,7,7,2.53003988485,0,2
3,1.5,3,0.75 1.0 1.5,1.5,5.11994585395e-06,$1.5,4.5511405915e-06,n/a,n/a,,1,1
7,0.75,2,..\..\JOCN-master\task a\images\cheez itz_original.jpg ..\..\JOCN-master\task a\images\m&m's_peanut.jpg,2,4.5511405915e-06,..\..\JOCN-master\task a\images\cheez itz_original.jpg,1.87733676285e-05,n/a,n/a,,1,2
1,0.5,3,0.5 1.5 0.75 1.25,0.5,2.12306883605,$1.25,1.98361031571,7,7,3.26213766751,0,1
2,1.75,2,1.0 0.5 1.5 1.75,1.75,1.13646047679,$1.75,1.53284848854,7,7,2.87899566116,0,1
6,0.75,3,1.75 1.0 0.75,0.75,2.4955208546,$1.75,3.23257820937,7,7,2.93383368989,0,2
2,1.25,3,1.25 1.5 0.75 1.0,1.25,0.78798142937,$1.25,2.61617874028,7,7,2.31172940461,0,1
2,1.0,12,0.75 1.5 0.5 1.25 1.0 1.75,1.0,1.34293636447,0.75,n/a,2,1,n/a,1,1
6,0.75,2,1.0 0.75,0.75,0.726868557744,$1.0,2.05022035912,7,7,2.71469092555,0,2
1,1.0,6,..\..\JOCN-master\task a\images\nabisco_teddy graham_honey.jpg ..\..\JOCN-master\task a\images\welch's_white_grape_raspberry.jpg ..\..\JOCN-master\task a\images\pepperidge farms-goldish-cheddar.jpg ..\..\JOCN-master\task a\images\nature_valley_sweet_and_salty.jpg ..\..\JOCN-master\task a\images\austin_peanut_butter.jpg ..\..\JOCN-master\task a\images\sourpatch_watermelon_candy.jpg,6,1.21208854392,..\..\JOCN-master\task a\images\welch's_white_grape_raspberry.jpg,1.9230851063,7,7,2.72141120816,0,1
5,0.75,3,..\..\JOCN-master\task a\images\snyders_mini_pretzels.jpg ..\..\JOCN-master\task a\images\keebler_cheese_and_peanut_butter.jpg ..\..\JOCN-master\task a\images\sourpatch_watermelon_candy.jpg,3,0.578691248782,..\..\JOCN-master\task a\images\sourpatch_watermelon_candy.jpg,1.49116146029,7,7,2.63697845,0,2
8,1.0,2,..\..\JOCN-master\task a\images\m&m's_peanut_butter.jpg ..\..\JOCN-master\task a\images\grandmas_oatmeal raisin_cookies.jpg,2,5.11994585395e-06,..\..\JOCN-master\task a\images\grandmas_oatmeal raisin_cookies.jpg,7.96443782747e-06,n/a,n/a,,1,2
1,0.5,6,0.5 1.25,0.5,0.000205368734896,$1.25,1.4660592454,7,7,3.0427781567,0,1
1,0.5,12,..\..\JOCN-master\task a\images\skinny_pop_popcorn.jpg ..\..\JOCN-master\task a\images\nutrigrain_apple cinnamon_bar.jpg ..\..\JOCN-master\task a\images\m&m's_peanut.jpg ..\..\JOCN-master\task a\images\nabisco_teddy graham_honey.jpg ..\..\JOCN-master\task a\images\doritos_nacho cheesier_chips.jpg ..\..\JOCN-master\task a\images\skittles_wild berry_candy.jpg ..\..\JOCN-master\task a\images\austin_cheddar cheese_cheese cracker.jpg ..\..\JOCN-master\task a\images\reeses_peanut butter cups_milk choc.jpg ..\..\JOCN-master\task a\images\nuture valley_crunchy_bar.jpg ..\..\JOCN-master\task a\images\basil_vanilla.jpg ..\..\JOCN-master\task a\images\slim_jim.jpg ..\..\JOCN-master\task a\images\sourpatchkids_original_candy.jpg,12,1.31572983018,..\..\JOCN-master\task a\images\reeses_peanut butter cups_milk choc.jpg,2.00663608708,7,7,2.8857580414,0,1
1,1.25,12,..\..\JOCN-master\task a\images\keebler_cheese_and_peanut_butter.jpg ..\..\JOCN-master\task a\images\cheez-it_white_cheddar.JPG ..\..\JOCN-master\task a\images\nuture valley_crunchy_bar.jpg ..\..\JOCN-master\task a\images\famous_amos_chocolate_chip.jpg ..\..\JOCN-master\task a\images\skittles_original_candy.jpg ..\..\JOCN-master\task a\images\nabisco_chips ahhoy_mini.jpg ..\..\JOCN-master\task a\images\pringles_the original_potato crisps.jpg ..\..\JOCN-master\task a\images\snyders_mini_pretzels.jpg ..\..\JOCN-master\task a\images\garden_veggie straws_cheddar.jpg ..\..\JOCN-master\task a\images\basil_vanilla.jpg ..\..\JOCN-master\task a\images\lays_kc masterpiece_barbecue chips.jpg ..\..\JOCN-master\task a\images\nature_valley_sweet_and_salty.jpg,12,1.66441424657,..\..\JOCN-master\task a\images\famous_amos_chocolate_chip.jpg,1.14608379849,7,7,2.51393180061,0,1
8,1.5,6,1.75 1.5,1.5,5.68898394704e-06,$1.75,4.5511405915e-06,n/a,n/a,,1,2
2,1.75,12,..\..\JOCN-master\task a\images\famous_amos_chocolate_chip.jpg ..\..\JOCN-master\task a\images\baked_cheetos_crunchy.jpg ..\..\JOCN-master\task a\images\lays_classic_potato chips.jpg ..\..\JOCN-master\task a\images\garden_veggie straws_sea salt.jpg ..\..\JOCN-master\task a\images\poptarts_strawberry_frosted.jpg ..\..\JOCN-master\task a\images\doritos_nacho cheesier_chips.jpg ..\..\JOCN-master\task a\images\quaker_chewy_chocolate chip.jpg ..\..\JOCN-master\task a\images\nuture valley_crunchy_bar.jpg ..\..\JOCN-master\task a\images\nabisco_mini_ritz.jpg ..\..\JOCN-master\task a\images\grandmas_vanilla sandwhich creme_cookies.jpg ..\..\JOCN-master\task a\images\nabisco_nutter butter_bites.jpg ..\..\JOCN-master\task a\images\welch's_tropical_fruits.jpg,12,0.860539773013,..\..\JOCN-master\task a\images\grandmas_vanilla sandwhich creme_cookies.jpg,1.76481229789,7,7,2.64628205611,0,1
3,1.75,3,1.75 1.5 0.5 1.25,1.75,5.11994585395e-06,$1.75,5.12017868459e-06,n/a,n/a,,1,1
5,1.75,3,..\..\JOCN-master\task a\images\garden_veggie straws_zesty ranch.jpg ..\..\JOCN-master\task a\images\famous_amos_chocolate_chip.jpg ..\..\JOCN-master\task a\images\pirates booty_aged white cheddar_ corn puffs.jpg,3,1.11235381709,..\..\JOCN-master\task a\images\pirates booty_aged white cheddar_ corn puffs.jpg,1.99206855334,7,7,3.0047866297,0,2
1,1.0,3,..\..\JOCN-master\task a\images\doritos_nacho cheesier_chips.jpg ..\..\JOCN-master\task a\images\sourpatch_watermelon_candy.jpg ..\..\JOCN-master\task a\images\nuture valley_crunchy_bar.jpg,3,2.0297676716,..\..\JOCN-master\task a\images\sourpatch_watermelon_candy.jpg,4.12281568069,7,7,3.59643602604,0,1
2,1.25,6,..\..\JOCN-master\task a\images\quaker_chewy_chocolate chip.jpg ..\..\JOCN-master\task a\images\skittles_original_candy.jpg ..\..\JOCN-master\task a\images\snickers_milk chocolate_candy bar.jpg ..\..\JOCN-master\task a\images\nature valley_oats and honey_crunchy.jpg ..\..\JOCN-master\task a\images\reeses_peanut butter cups_milk choc.jpg ..\..\JOCN-master\task a\images\austin_cheddar cheese_cheese cracker.jpg,6,1.98235420953,..\..\JOCN-master\task a\images\quaker_chewy_chocolate chip.jpg,2.33521085582,7,7,3.03358491487,0,1
8,0.5,3,1.25 0.75 1.5 0.5,0.5,6.82659447193e-06,$0.75,5.11994585395e-06,n/a,n/a,,1,2
6,1.0,12,..\..\JOCN-master\task a\images\welch's_tropical_fruits.jpg ..\..\JOCN-master\task a\images\keebler_cheese_and_peanut_butter.jpg ..\..\JOCN-master\task a\images\austin_peanut butter_cheese cracker.jpg ..\..\JOCN-master\task a\images\nuture valley_crunchy_bar.jpg ..\..\JOCN-master\task a\images\lance_toast_cheese_with_pb.JPG ..\..\JOCN-master\task a\images\grandmas_chocolate brownie_cookie.jpg ..\..\JOCN-master\task a\images\nature_valley_sweet_and_salty.jpg ..\..\JOCN-master\task a\images\doritos_nacho cheesier_chips.jpg ..\..\JOCN-master\task a\images\grandmas_oatmeal raisin_cookies.jpg ..\..\JOCN-master\task a\images\basil_vanilla.jpg ..\..\JOCN-master\task a\images\pringles_cheddar_potato crisps.jpg ..\..\JOCN-master\task a\images\grandmas_vanilla sandwhich creme_cookies.jpg,12,0.00034417770803,..\..\JOCN-master\task a\images\grandmas_vanilla sandwhich creme_cookies.jpg,2.5930215558,7,7,3.44629832637,0,2
3,1.25,12,..\..\JOCN-master\task a\images\nuture valley_crunchy_bar.jpg ..\..\JOCN-master\task a\images\slim_jim.jpg ..\..\JOCN-master\task a\images\nabisco_ritz bits_cookies.jpg ..\..\JOCN-master\task a\images\welch's_white_grape_raspberry.jpg ..\..\JOCN-master\task a\images\m&m's_peanut_butter.jpg ..\..\JOCN-master\task a\images\pepperidge farms-goldish-cheddar.jpg ..\..\JOCN-master\task a\images\starburst_orignal_candy.jpg ..\..\JOCN-master\task a\images\kitkat_crisp wafers_milk choc.jpg ..\..\JOCN-master\task a\images\lance_toast_cheese_with_pb.JPG ..\..\JOCN-master\task a\images\swedish fish_original_candy.jpg ..\..\JOCN-master\task a\images\skittles_original_candy.jpg ..\..\JOCN-master\task a\images\poptarts_strawberry_frosted.jpg,12,6.82682730258e-06,..\..\JOCN-master\task a\images\swedish fish_original_candy.jpg,9.67108644545e-06,n/a,n/a,,1,1
5,1.25,12,..\..\JOCN-master\task a\images\nutrigrain_apple cinnamon_bar.jpg ..\..\JOCN-master\task a\images\garden_veggie straws_sea salt.jpg ..\..\JOCN-master\task a\images\barnum's_animal_crackers.jpg ..\..\JOCN-master\task a\images\m&m's_peanut_butter.jpg ..\..\JOCN-master\task a\images\skittles_sour_candy.jpg ..\..\JOCN-master\task a\images\austin_cheddar cheese_cheese cracker.jpg ..\..\JOCN-master\task a\images\grandmas_chocolate chip_cookies.jpg ..\..\JOCN-master\task a\images\austin_peanut butter_cheese cracker.jpg ..\..\JOCN-master\task a\images\oreo_thin_crisps.jpg ..\..\JOCN-master\task a\images\lays_kc masterpiece_barbecue chips.jpg ..\..\JOCN-master\task a\images\starburst_orignal_candy.jpg ..\..\JOCN-master\task a\images\cheez-it_white_cheddar.JPG,12,1.36361034983,..\..\JOCN-master\task a\images\garden_veggie straws_sea salt.jpg,2.7138569348,7,6,3.34189074719,0,2
2,1.25,6,..\..\JOCN-master\task a\images\keebler_cheese_and_peanut_butter.jpg ..\..\JOCN-master\task a\images\basil_vanilla.jpg ..\..\JOCN-master\task a\images\nabisco_chips ahhoy_mini.jpg ..\..\JOCN-master\task a\images\cheetos_crunchy_chips.jpg ..\..\JOCN-master\task a\images\ct_crunch_cereal_bar.jpg ..\..\JOCN-master\task a\images\garden_veggie straws_sea salt.jpg,6,1.5022747016,..\..\JOCN-master\task a\images\nabisco_chips ahhoy_mini.jpg,2.54908912373,7,6,3.32669572928,0,1
3,0.5,2,1.0 1.25 0.75 0.5 1.5 1.75,0.5,5.68898394704e-06,$0.5,5.11994585395e-06,n/a,n/a,,1,1
5,1.75,2,..\..\JOCN-master\task a\images\welch's_tropical_fruits.jpg ..\..\JOCN-master\task a\images\sun chips_garden salsa_chips.jpg,2,1.35990631557,..\..\JOCN-master\task a\images\welch's_tropical_fruits.jpg,1.57322821021,7,7,3.20582052809,0,2
7,1.25,12,..\..\JOCN-master\task a\images\nabisco_chips ahhoy_mini.jpg ..\..\JOCN-master\task a\images\garden_veggie straws_cheddar.jpg ..\..\JOCN-master\task a\images\skinny_pop_popcorn.jpg ..\..\JOCN-master\task a\images\swedish fish_original_candy.jpg ..\..\JOCN-master\task a\images\ct_crunch_cereal_bar.jpg ..\..\JOCN-master\task a\images\starburst_orignal_candy.jpg ..\..\JOCN-master\task a\images\famous_amos_chocolate_chip.jpg ..\..\JOCN-master\task a\images\cheetos_crunchy_chips.jpg ..\..\JOCN-master\task a\images\nutrigrain_strawberry_bar.jpg ..\..\JOCN-master\task a\images\garden_veggie straws_zesty ranch.jpg ..\..\JOCN-master\task a\images\kellogg's_rice krispies_orignal.jpg ..\..\JOCN-master\task a\images\nestle_babyruth_bar.jpg,12,5.11994585395e-06,..\..\JOCN-master\task a\images\garden_veggie straws_cheddar.jpg,7.96443782747e-06,n/a,n/a,,1,2
7,1.0,3,..\..\JOCN-master\task a\images\skittles_original_candy.jpg ..\..\JOCN-master\task a\images\lance_toast_cheese_with_pb.JPG ..\..\JOCN-master\task a\images\cheez-it_white_cheddar.JPG,3,5.68875111639e-06,..\..\JOCN-master\task a\images\cheez-it_white_cheddar.JPG,7.96443782747e-06,n/a,n/a,,1,2
5,1.25,3,..\..\JOCN-master\task a\images\skinny_pop_popcorn.jpg ..\..\JOCN-master\task a\images\pringles_cheddar_potato crisps.jpg ..\..\JOCN-master\task a\images\nutrigrain_apple cinnamon_bar.jpg,3,1.07917850185,..\..\JOCN-master\task a\images\nutrigrain_apple cinnamon_bar.jpg,2.6448882788,7,7,2.84599442617,0,2
6,1.75,6,..\..\JOCN-master\task a\images\kitkat_crisp wafers_milk choc.jpg ..\..\JOCN-master\task a\images\ct_crunch_cereal_bar.jpg ..\..\JOCN-master\task a\images\nature_valley_sweet_and_salty.jpg ..\..\JOCN-master\task a\images\nuture valley_crunchy_bar.jpg ..\..\JOCN-master\task a\images\grandmas_oatmeal raisin_cookies.jpg ..\..\JOCN-master\task a\images\cheez itz_original.jpg,6,1.00332799926,..\..\JOCN-master\task a\images\nature_valley_sweet_and_salty.jpg,2.41866171197,7,5,2.56635660352,0,2
1,0.75,6,..\..\JOCN-master\task a\images\kellogg's_rice krispies_orignal.jpg ..\..\JOCN-master\task a\images\haribo_gold_bears.jpg ..\..\JOCN-master\task a\images\grandmas_vanilla sandwhich creme_cookies.jpg ..\..\JOCN-master\task a\images\skittles_wild berry_candy.jpg ..\..\JOCN-master\task a\images\doritos_cool ranch_chips.jpg ..\..\JOCN-master\task a\images\nabisco_oreo_mini.jpg,6,1.15578448912,..\..\JOCN-master\task a\images\grandmas_vanilla sandwhich creme_cookies.jpg,1.66315700253,7,7,2.91684325924,0,1
2,1.0,6,..\..\JOCN-master\task a\images\austin_peanut_butter.jpg ..\..\JOCN-master\task a\images\basil_vanilla.jpg ..\..\JOCN-master\task a\images\nutrigrain_strawberry_bar.jpg ..\..\JOCN-master\task a\images\nabisco_nutter butter_cookies and crackers.jpg ..\..\JOCN-master\task a\images\swedish fish_original_candy.jpg ..\..\JOCN-master\task a\images\starburst_orignal_candy.jpg,6,1.27903081849,..\..\JOCN-master\task a\images\nutrigrain_strawberry_bar.jpg,2.48025984573,7,7,2.52538068616,0,1
8,0.5,6,..\..\JOCN-master\task a\images\cheez itz_original.jpg ..\..\JOCN-master\task a\images\nabisco_oreo_mini.jpg ..\..\JOCN-master\task a\images\lance_toasty_with_pb.jpg ..\..\JOCN-master\task a\images\barnum's_animal_crackers.jpg ..\..\JOCN-master\task a\images\doritos_nacho cheesier_chips.jpg ..\..\JOCN-master\task a\images\skinny_pop_popcorn.jpg,6,5.68875111639e-06,..\..\JOCN-master\task a\images\cheez itz_original.jpg,7.39563256502e-06,n/a,n/a,,1,2
6,1.25,3,..\..\JOCN-master\task a\images\lance_toast_cheese_with_pb.JPG ..\..\JOCN-master\task a\images\grandmas_vanilla sandwhich creme_cookies.jpg ..\..\JOCN-master\task a\images\pepperidge farms-goldish-cheddar.jpg,3,1.51133254799,..\..\JOCN-master\task a\images\pepperidge farms-goldish-cheddar.jpg,2.07896004873,7,7,2.91459842422,0,2
2,1.75,2,..\..\JOCN-master\task a\images\kellogg's_rice krispies_orignal.jpg ..\..\JOCN-master\task a\images\welch's_white_grape_raspberry.jpg,2,0.930664410815,..\..\JOCN-master\task a\images\kellogg's_rice krispies_orignal.jpg,2.06567934132,7,7,4.11349671427,0,1
4,1.25,12,1.5 1.0 1.25 1.75,1.25,5.12017868459e-06,$1.0,5.11994585395e-06,n/a,n/a,,1,1
5,0.75,2,..\..\JOCN-master\task a\images\welch's_white_grape_raspberry.jpg ..\..\JOCN-master\task a\images\keebler_fudge_stripes.jpg,2,0.548529906198,..\..\JOCN-master\task a\images\welch's_white_grape_raspberry.jpg,1.40895988373,1,4,n/a,1,2
8,1.75,12,1.75 0.5 1.5 0.75,1.75,5.68898394704e-06,$0.75,5.11994585395e-06,n/a,n/a,,1,2
7,0.5,6,..\..\JOCN-master\task a\images\garden_veggie straws_sea salt.jpg ..\..\JOCN-master\task a\images\skittles_wild berry_candy.jpg ..\..\JOCN-master\task a\images\grandmas_vanilla sandwhich creme_cookies.jpg ..\..\JOCN-master\task a\images\cheetos_crunchy_chips.jpg ..\..\JOCN-master\task a\images\cheez itz_original.jpg ..\..\JOCN-master\task a\images\nabisco_nutter butter_bites.jpg,6,5.11994585395e-06,..\..\JOCN-master\task a\images\cheez itz_original.jpg,7.96443782747e-06,n/a,n/a,,1,2
2,1.25,2,..\..\JOCN-master\task a\images\nabisco_chips ahhoy_mini.jpg ..\..\JOCN-master\task a\images\ct_crunch_cereal_bar.jpg,2,1.61401127419,..\..\JOCN-master\task a\images\ct_crunch_cereal_bar.jpg,1.55326818023,7,6,2.47741597076,0,1
5,1.25,12,..\..\JOCN-master\task a\images\pepperidge farms-goldish-cheddar.jpg ..\..\JOCN-master\task a\images\pirates booty_aged white cheddar_ corn puffs.jpg ..\..\JOCN-master\task a\images\nestle_crunch_bar.jpg ..\..\JOCN-master\task a\images\austin_cheddar cheese_cheese cracker.jpg ..\..\JOCN-master\task a\images\nabisco_ritz bits_cookies.jpg ..\..\JOCN-master\task a\images\baked_cheetos_crunchy.jpg ..\..\JOCN-master\task a\images\skinny_pop_popcorn.jpg ..\..\JOCN-master\task a\images\austin_peanut_butter.jpg ..\..\JOCN-master\task a\images\nestle_babyruth_bar.jpg ..\..\JOCN-master\task a\images\nuture valley_crunchy_bar.jpg ..\..\JOCN-master\task a\images\welch's_mixed fruit_fruit snacks.jpg ..\..\JOCN-master\task a\images\nature_valley_sweet_and_salty.jpg,12,2.86748704198,..\..\JOCN-master\task a\images\welch's_mixed fruit_fruit snacks.jpg,1.57409519679,7,5,n/a,1,2
8,1.5,3,..\..\JOCN-master\task a\images\grandmas_chocolate brownie_cookie.jpg ..\..\JOCN-master\task a\images\m&m's_peanut_butter.jpg ..\..\JOCN-master\task a\images\starburst_favereds_candy.jpg,3,5.11994585395e-06,..\..\JOCN-master\task a\images\grandmas_chocolate brownie_cookie.jpg,1.19467731565e-05,n/a,n/a,,1,2
7,0.5,3,0.75 1.5 0.5,0.5,5.12017868459e-06,$0.5,4.5511405915e-06,n/a,n/a,,1,2
6,0.5,6,..\..\JOCN-master\task a\images\grandmas_vanilla sandwhich creme_cookies.jpg ..\..\JOCN-master\task a\images\grandmas_chocolate brownie_cookie.jpg ..\..\JOCN-master\task a\images\pepperidge farms-goldish-cheddar.jpg ..\..\JOCN-master\task a\images\quaker_chewy_chocolate chip.jpg ..\..\JOCN-master\task a\images\sourpatchkids_original_candy.jpg ..\..\JOCN-master\task a\images\m&m's_peanut.jpg,6,0.93537651631,..\..\JOCN-master\task a\images\m&m's_peanut.jpg,1.38834676961,7,7,3.16184998071,0,2
3,0.75,3,..\..\JOCN-master\task a\images\doritos_nacho cheesier_chips.jpg ..\..\JOCN-master\task a\images\cheez itz_original.jpg ..\..\JOCN-master\task a\images\swedish fish_original_candy.jpg,3,5.68875111639e-06,..\..\JOCN-master\task a\images\cheez itz_original.jpg,9.67108644545e-06,n/a,n/a,,1,1
6,0.5,2,..\..\JOCN-master\task a\images\welch's_white_grape_raspberry.jpg ..\..\JOCN-master\task a\images\lance_toast_cheese_with_pb.JPG,2,0.943814842729,..\..\JOCN-master\task a\images\welch's_white_grape_raspberry.jpg,0.963264579419,7,7,3.0853520825,0,2
2,0.75,2,..\..\JOCN-master\task a\images\pringles_the original_potato crisps.jpg ..\..\JOCN-master\task a\images\kellogg's_rice krispies_orignal.jpg,2,0.914732682053,..\..\JOCN-master\task a\images\kellogg's_rice krispies_orignal.jpg,1.06304993783,7,7,3.28981694859,0,1
6,1.75,12,..\..\JOCN-master\task a\images\lays_classic_potato chips.jpg ..\..\JOCN-master\task a\images\nature valley_oats and honey_crunchy.jpg ..\..\JOCN-master\task a\images\austin_peanut butter_cheese cracker.jpg ..\..\JOCN-master\task a\images\keebler_cheese_and_peanut_butter.jpg ..\..\JOCN-master\task a\images\swedish fish_original_candy.jpg ..\..\JOCN-master\task a\images\sun chips_garden salsa_chips.jpg ..\..\JOCN-master\task a\images\austin_peanut_butter.jpg ..\..\JOCN-master\task a\images\poptarts_strawberry_frosted.jpg ..\..\JOCN-master\task a\images\sourpatchkids_original_candy.jpg ..\..\JOCN-master\task a\images\skittles_sour_candy.jpg ..\..\JOCN-master\task a\images\lays_kc masterpiece_barbecue chips.jpg ..\..\JOCN-master\task a\images\cheez-it_white_cheddar.JPG,12,0.935576764867,..\..\JOCN-master\task a\images\cheez-it_white_cheddar.JPG,2.96382891713,7,7,2.73231680505,0,2
1,0.5,2,..\..\JOCN-master\task a\images\poptarts_brown_sugar.jpg ..\..\JOCN-master\task a\images\sourpatch_watermelon_candy.jpg,2,0.898226375459,..\..\JOCN-master\task a\images\poptarts_brown_sugar.jpg,1.62345198262,7,7,2.8199086024,0,1
7,1.5,3,1.5 1.75 1.0,1.5,1.08086969703e-05,$1.5,5.11994585395e-06,n/a,n/a,,1,2
2,1.25,12,1.75 1.25,1.25,1.78534804331,$1.25,0.751551501686,7,7,3.76012749923,0,1
6,1.25,12,..\..\JOCN-master\task a\images\swedish fish_original_candy.jpg ..\..\JOCN-master\task a\images\starburst_orignal_candy.jpg ..\..\JOCN-master\task a\images\welch's_tropical_fruits.jpg ..\..\JOCN-master\task a\images\sun chips_garden salsa_chips.jpg ..\..\JOCN-master\task a\images\grandmas_chocolate brownie_cookie.jpg ..\..\JOCN-master\task a\images\garden_veggie straws_cheddar.jpg ..\..\JOCN-master\task a\images\austin_peanut butter_cheese cracker.jpg ..\..\JOCN-master\task a\images\welch's_berry.jpg ..\..\JOCN-master\task a\images\m&m's_peanut_butter.jpg ..\..\JOCN-master\task a\images\welch's_mixed fruit_fruit snacks.jpg ..\..\JOCN-master\task a\images\poptarts_strawberry_frosted.jpg ..\..\JOCN-master\task a\images\pepperidge farms-goldish-cheddar.jpg,12,1.41834768537,..\..\JOCN-master\task a\images\m&m's_peanut_butter.jpg,2.67430494609,6,3,n/a,1,2
5,0.5,12,..\..\JOCN-master\task a\images\skittles_original_candy.jpg ..\..\JOCN-master\task a\images\nabisco_chips ahhoy_mini.jpg ..\..\JOCN-master\task a\images\welch's_tropical_fruits.jpg ..\..\JOCN-master\task a\images\cheetos_crunchy_chips.jpg ..\..\JOCN-master\task a\images\doritos_nacho cheesier_chips.jpg ..\..\JOCN-master\task a\images\sun chips_french onion_chips.jpg ..\..\JOCN-master\task a\images\lance_toast_cheese_with_pb.JPG ..\..\JOCN-master\task a\images\pringles_the original_potato crisps.jpg ..\..\JOCN-master\task a\images\pepperidge farms-goldish-cheddar.jpg ..\..\JOCN-master\task a\images\doritos_cool ranch_chips.jpg ..\..\JOCN-master\task a\images\famous_amos_chocolate_chip.jpg ..\..\JOCN-master\task a\images\nabisco_nutter butter_bites.jpg,12,2.43884303956,..\..\JOCN-master\task a\images\lance_toast_cheese_with_pb.JPG,1.82725068019,7,6,4.12162556546,0,2
4,1.0,3,..\..\JOCN-master\task a\images\barnum's_animal_crackers.jpg ..\..\JOCN-master\task a\images\haribo_gold_bears.jpg ..\..\JOCN-master\task a\images\baked_cheetos_crunchy.jpg,3,5.68898394704e-06,..\..\JOCN-master\task a\images\baked_cheetos_crunchy.jpg,6.82659447193e-06,n/a,n/a,,1,1
1,1.75,12,1.75 1.5 1.25,1.75,1.08251048322,$1.75,1.69870742806,6,6,3.22257714556,0,1
4,1.5,6,..\..\JOCN-master\task a\images\basil_vanilla.jpg ..\..\JOCN-master\task a\images\nestle_babyruth_bar.jpg ..\..\JOCN-master\task a\images\famous_amos_chocolate_chip.jpg ..\..\JOCN-master\task a\images\lance_toast_cheese_with_pb.JPG ..\..\JOCN-master\task a\images\ct_crunch_cereal_bar.jpg ..\..\JOCN-master\task a\images\grandmas_chocolate chip_cookies.jpg,6,5.68898394704e-06,..\..\JOCN-master\task a\images\lance_toast_cheese_with_pb.JPG,1.02398917079e-05,n/a,n/a,,1,1
4,1.0,12,..\..\JOCN-master\task a\images\grandmas_oatmeal raisin_cookies.jpg ..\..\JOCN-master\task a\images\kitkat_crisp wafers_milk choc.jpg ..\..\JOCN-master\task a\images\cheez itz_original.jpg ..\..\JOCN-master\task a\images\oreo_thin_crisps.jpg ..\..\JOCN-master\task a\images\slim_jim.jpg ..\..\JOCN-master\task a\images\skittles_sour_candy.jpg ..\..\JOCN-master\task a\images\nabisco_ritz bits_cookies.jpg ..\..\JOCN-master\task a\images\welch's_berry.jpg ..\..\JOCN-master\task a\images\austin_peanut butter_cheese cracker.jpg ..\..\JOCN-master\task a\images\ct_crunch_cereal_bar.jpg ..\..\JOCN-master\task a\images\lays_kc masterpiece_barbecue chips.jpg ..\..\JOCN-master\task a\images\lance_toasty_with_pb.jpg,12,5.11994585395e-06,..\..\JOCN-master\task a\images\lance_toasty_with_pb.jpg,1.2515578419e-05,n/a,n/a,,1,1
5,1.75,12,..\..\JOCN-master\task a\images\grandmas_chocolate brownie_cookie.jpg ..\..\JOCN-master\task a\images\skinny_pop_popcorn.jpg ..\..\JOCN-master\task a\images\oreo_thin_crisps.jpg ..\..\JOCN-master\task a\images\sun chips_garden salsa_chips.jpg ..\..\JOCN-master\task a\images\grandmas_oatmeal raisin_cookies.jpg ..\..\JOCN-master\task a\images\nature_valley_sweet_and_salty.jpg ..\..\JOCN-master\task a\images\nature valley_oats and honey_crunchy.jpg ..\..\JOCN-master\task a\images\m&m's_peanut_butter.jpg ..\..\JOCN-master\task a\images\nestle_crunch_bar.jpg ..\..\JOCN-master\task a\images\nabisco_oreo_mini.jpg ..\..\JOCN-master\task a\images\poptarts_strawberry_frosted.jpg ..\..\JOCN-master\task a\images\garden_veggie straws_cheddar.jpg,12,0.98835712322,..\..\JOCN-master\task a\images\skinny_pop_popcorn.jpg,2.44707144611,6,6,3.597289928,0,2
4,0.75,2,1.5 0.75,0.75,5.68898394704e-06,$1.5,5.11994585395e-06,n/a,n/a,,1,1
2,1.5,2,..\..\JOCN-master\task a\images\pringles_cheddar_potato crisps.jpg ..\..\JOCN-master\task a\images\sourpatch_watermelon_candy.jpg,2,1.97572665568,..\..\JOCN-master\task a\images\sourpatch_watermelon_candy.jpg,1.73096398776,7,7,2.82347439672,0,1
5,1.0,3,..\..\JOCN-master\task a\images\starburst_orignal_candy.jpg ..\..\JOCN-master\task a\images\austin_peanut butter_cheese cracker.jpg ..\..\JOCN-master\task a\images\barnum's_animal_crackers.jpg,3,1.40704614203,..\..\JOCN-master\task a\images\starburst_orignal_candy.jpg,1.86421934515,7,7,3.16159170493,0,2
1,1.0,12,..\..\JOCN-master\task a\images\welch's_white_grape_raspberry.jpg ..\..\JOCN-master\task a\images\grandmas_vanilla sandwhich creme_cookies.jpg ..\..\JOCN-master\task a\images\welch's_berry.jpg ..\..\JOCN-master\task a\images\nabisco_mini_ritz.jpg ..\..\JOCN-master\task a\images\poptarts_brown_sugar.jpg ..\..\JOCN-master\task a\images\lance_toasty_with_pb.jpg ..\..\JOCN-master\task a\images\skittles_original_candy.jpg ..\..\JOCN-master\task a\images\nutrigrain_strawberry_bar.jpg ..\..\JOCN-master\task a\images\basil_vanilla.jpg ..\..\JOCN-master\task a\images\twix_milk chocolate_cookie bars.jpg ..\..\JOCN-master\task a\images\welch's_tropical_fruits.jpg ..\..\JOCN-master\task a\images\cheez-it_white_cheddar.JPG,12,1.00895032636,..\..\JOCN-master\task a\images\poptarts_brown_sugar.jpg,1.9442187536,7,7,2.84132498736,0,1
6,1.5,3,..\..\JOCN-master\task a\images\barnum's_animal_crackers.jpg ..\..\JOCN-master\task a\images\kellogg's_rice krispies_orignal.jpg ..\..\JOCN-master\task a\images\skinny_pop_popcorn.jpg,3,1.34619552805,..\..\JOCN-master\task a\images\skinny_pop_popcorn.jpg,1.31596136792,7,7,3.31414035521,0,2
8,0.75,3,..\..\JOCN-master\task a\images\starburst_orignal_candy.jpg ..\..\JOCN-master\task a\images\kellogg's_rice krispies_orignal.jpg ..\..\JOCN-master\task a\images\garden_veggie straws_zesty ranch.jpg,3,5.12017868459e-06,..\..\JOCN-master\task a\images\garden_veggie straws_zesty ranch.jpg,7.39563256502e-06,n/a,n/a,,1,2
3,1.25,3,..\..\JOCN-master\task a\images\m&m's_peanut.jpg ..\..\JOCN-master\task a\images\nature_valley_sweet_and_salty.jpg ..\..\JOCN-master\task a\images\pringles_cheddar_potato crisps.jpg,3,5.11994585395e-06,..\..\JOCN-master\task a\images\pringles_cheddar_potato crisps.jpg,9.10204835236e-06,n/a,n/a,,1,1
8,1.5,3,1.5 1.0 1.25,1.5,5.12017868459e-06,$1.0,5.11994585395e-06,n/a,n/a,,1,2
2,1.25,3,..\..\JOCN-master\task a\images\nabisco_nutter butter_bites.jpg ..\..\JOCN-master\task a\images\nestle_crunch_bar.jpg ..\..\JOCN-master\task a\images\m&m's_peanut_butter.jpg,3,0.000332799972966,..\..\JOCN-master\task a\images\m&m's_peanut_butter.jpg,1.91744741914,4,2,n/a,1,1
1,0.5,3,..\..\JOCN-master\task a\images\skittles_original_candy.jpg ..\..\JOCN-master\task a\images\doritos_cool ranch_chips.jpg ..\..\JOCN-master\task a\images\pringles_sour cream and onion_potato crisps.jpg,3,1.85660192533,..\..\JOCN-master\task a\images\doritos_cool ranch_chips.jpg,2.09113654308,7,7,4.30180969182,0,1
4,1.25,3,1.25 1.0,1.25,5.68875111639e-06,$1.0,5.11994585395e-06,n/a,n/a,,1,1
6,1.5,3,..\..\JOCN-master\task a\images\basil_vanilla.jpg ..\..\JOCN-master\task a\images\poptarts_strawberry_frosted.jpg ..\..\JOCN-master\task a\images\reeses_peanut butter cups_milk choc.jpg,3,1.21541881887,..\..\JOCN-master\task a\images\poptarts_strawberry_frosted.jpg,1.61211630609,7,7,3.47917838814,0,2
5,1.75,2,..\..\JOCN-master\task a\images\garden_veggie straws_zesty ranch.jpg ..\..\JOCN-master\task a\images\welch's_tropical_fruits.jpg,2,1.66599120595,..\..\JOCN-master\task a\images\garden_veggie straws_zesty ranch.jpg,2.33114728355,7,7,2.55603468628,0,2
6,1.5,3,..\..\JOCN-master\task a\images\starburst_favereds_candy.jpg ..\..\JOCN-master\task a\images\welch's_white_grape_raspberry.jpg ..\..\JOCN-master\task a\images\nutrigrain_strawberry_bar.jpg,3,1.2254477581,..\..\JOCN-master\task a\images\nutrigrain_strawberry_bar.jpg,1.74987328006,7,7,4.05247315834,0,2
5,1.5,6,..\..\JOCN-master\task a\images\basil_vanilla.jpg ..\..\JOCN-master\task a\images\skittles_sour_candy.jpg ..\..\JOCN-master\task a\images\austin_cheddar cheese_cheese cracker.jpg ..\..\JOCN-master\task a\images\swedish fish_original_candy.jpg ..\..\JOCN-master\task a\images\lays_classic_potato chips.jpg ..\..\JOCN-master\task a\images\nestle_crunch_bar.jpg,6,2.62059104117,..\..\JOCN-master\task a\images\swedish fish_original_candy.jpg,1.96344036609,6,5,3.31331831077,0,2
6,1.0,12,..\..\JOCN-master\task a\images\lance_toast_cheese_with_pb.JPG ..\..\JOCN-master\task a\images\poptarts_strawberry_frosted.jpg ..\..\JOCN-master\task a\images\doritos_cool ranch_chips.jpg ..\..\JOCN-master\task a\images\nabisco_ritz bits_cookies.jpg ..\..\JOCN-master\task a\images\pirates booty_aged white cheddar_ corn puffs.jpg ..\..\JOCN-master\task a\images\garden_veggie straws_cheddar.jpg ..\..\JOCN-master\task a\images\swedish fish_original_candy.jpg ..\..\JOCN-master\task a\images\welch's_tropical_fruits.jpg ..\..\JOCN-master\task a\images\garden_veggie straws_zesty ranch.jpg ..\..\JOCN-master\task a\images\austin_cheddar cheese_cheese cracker.jpg ..\..\JOCN-master\task a\images\skittles_wild berry_candy.jpg ..\..\JOCN-master\task a\images\grandmas_vanilla sandwhich creme_cookies.jpg,12,2.36672103358,..\..\JOCN-master\task a\images\garden_veggie straws_zesty ranch.jpg,3.35426237038,4,2,n/a,1,2
2,1.0,2,..\..\JOCN-master\task a\images\twix_milk chocolate_cookie bars.jpg ..\..\JOCN-master\task a\images\pringles_sour cream and onion_potato crisps.jpg,2,1.18776798225,..\..\JOCN-master\task a\images\twix_milk chocolate_cookie bars.jpg,1.30324556702,6,6,3.00624184706,0,1
5,1.25,6,..\..\JOCN-master\task a\images\poptarts_brown_sugar.jpg ..\..\JOCN-master\task a\images\slim_jim.jpg ..\..\JOCN-master\task a\images\nabisco_oreo_mini.jpg ..\..\JOCN-master\task a\images\pringles_the original_potato crisps.jpg ..\..\JOCN-master\task a\images\grandmas_chocolate chip_cookies.jpg ..\..\JOCN-master\task a\images\keebler_fudge_stripes.jpg,6,1.22578112688,..\..\JOCN-master\task a\images\grandmas_chocolate chip_cookies.jpg,1.28393805237,6,7,3.18803820433,0,2
1,1.0,12,..\..\JOCN-master\task a\images\garden_veggie straws_sea salt.jpg ..\..\JOCN-master\task a\images\pringles_the original_potato crisps.jpg ..\..\JOCN-master\task a\images\nabisco_mini_ritz.jpg ..\..\JOCN-master\task a\images\keebler_cheese_and_peanut_butter.jpg ..\..\JOCN-master\task a\images\nabisco_nutter butter_cookies and crackers.jpg ..\..\JOCN-master\task a\images\doritos_nacho cheesier_chips.jpg ..\..\JOCN-master\task a\images\poptarts_strawberry_frosted.jpg ..\..\JOCN-master\task a\images\nature valley_oats and honey_crunchy.jpg ..\..\JOCN-master\task a\images\sourpatch_watermelon_candy.jpg ..\..\JOCN-master\task a\images\m&m's_peanut.jpg ..\..\JOCN-master\task a\images\twix_milk chocolate_cookie bars.jpg ..\..\JOCN-master\task a\images\skittles_original_candy.jpg,12,1.02279537125,..\..\JOCN-master\task a\images\twix_milk chocolate_cookie bars.jpg,1.23441856448,7,7,2.54779035086,0,1
2,1.25,6,..\..\JOCN-master\task a\images\pringles_the original_potato crisps.jpg ..\..\JOCN-master\task a\images\ct_crunch_cereal_bar.jpg ..\..\JOCN-master\task a\images\pringles_sour cream and onion_potato crisps.jpg ..\..\JOCN-master\task a\images\snickers_milk chocolate_candy bar.jpg ..\..\JOCN-master\task a\images\kitkat_crisp wafers_milk choc.jpg ..\..\JOCN-master\task a\images\reeses_peanut butter cups_milk choc.jpg,6,0.820420602104,..\..\JOCN-master\task a\images\reeses_peanut butter cups_milk choc.jpg,1.45037782751,3,7,n/a,1,1
6,0.75,6,..\..\JOCN-master\task a\images\sun chips_garden salsa_chips.jpg ..\..\JOCN-master\task a\images\keebler_fudge_stripes.jpg ..\..\JOCN-master\task a\images\nature_valley_sweet_and_salty.jpg ..\..\JOCN-master\task a\images\nabisco_mini_ritz.jpg ..\..\JOCN-master\task a\images\garden_veggie straws_zesty ranch.jpg ..\..\JOCN-master\task a\images\cheez itz_original.jpg,6,0.723625892075,..\..\JOCN-master\task a\images\nature_valley_sweet_and_salty.jpg,2.00700074481,6,2,n/a,1,2
3,1.0,12,1.0 0.5,1.0,5.68875111639e-06,$0.5,4.5511405915e-06,n/a,n/a,,1,1
3,0.5,3,..\..\JOCN-master\task a\images\lance_toasty_with_pb.jpg ..\..\JOCN-master\task a\images\nabisco_nutter butter_cookies and crackers.jpg ..\..\JOCN-master\task a\images\doritos_cool ranch_chips.jpg,3,5.11994585395e-06,..\..\JOCN-master\task a\images\nabisco_nutter butter_cookies and crackers.jpg,1.30843836814e-05,n/a,n/a,,1,1
1,0.5,12,..\..\JOCN-master\task a\images\lays_classic_potato chips.jpg ..\..\JOCN-master\task a\images\basil_vanilla.jpg ..\..\JOCN-master\task a\images\garden_veggie straws_cheddar.jpg ..\..\JOCN-master\task a\images\lance_toast_cheese_with_pb.JPG ..\..\JOCN-master\task a\images\keebler_cheese_and_peanut_butter.jpg ..\..\JOCN-master\task a\images\swedish fish_original_candy.jpg ..\..\JOCN-master\task a\images\skinny_pop_popcorn.jpg ..\..\JOCN-master\task a\images\nabisco_nutter butter_cookies and crackers.jpg ..\..\JOCN-master\task a\images\pringles_sour cream and onion_potato crisps.jpg ..\..\JOCN-master\task a\images\kitkat_crisp wafers_milk choc.jpg ..\..\JOCN-master\task a\images\grandmas_chocolate brownie_cookie.jpg ..\..\JOCN-master\task a\images\sourpatchkids_original_candy.jpg,12,2.88709037867,..\..\JOCN-master\task a\images\lance_toast_cheese_with_pb.JPG,4.36829856201,7,7,2.9389201242,0,1
5,1.0,2,..\..\JOCN-master\task a\images\poptarts_brown_sugar.jpg ..\..\JOCN-master\task a\images\keebler_fudge_stripes.jpg,2,0.963295299327,..\..\JOCN-master\task a\images\poptarts_brown_sugar.jpg,2.70926714037,7,7,2.49997411552,0,2
1,1.5,12,..\..\JOCN-master\task a\images\ct_crunch_cereal_bar.jpg ..\..\JOCN-master\task a\images\grandmas_vanilla sandwhich creme_cookies.jpg ..\..\JOCN-master\task a\images\skittles_sour_candy.jpg ..\..\JOCN-master\task a\images\nabisco_ritz bits_cookies.jpg ..\..\JOCN-master\task a\images\doritos_cool ranch_chips.jpg ..\..\JOCN-master\task a\images\nabisco_chips ahhoy_mini.jpg ..\..\JOCN-master\task a\images\doritos_nacho cheesier_chips.jpg ..\..\JOCN-master\task a\images\nuture valley_crunchy_bar.jpg ..\..\JOCN-master\task a\images\pringles_sour cream and onion_potato crisps.jpg ..\..\JOCN-master\task a\images\swedish fish_original_candy.jpg ..\..\JOCN-master\task a\images\baked_cheetos_crunchy.jpg ..\..\JOCN-master\task a\images\welch's_berry.jpg,12,1.00337919919,..\..\JOCN-master\task a\images\ct_crunch_cereal_bar.jpg,1.7686864303,7,7,3.03998263739,0,1
1,0.75,6,..\..\JOCN-master\task a\images\nestle_crunch_bar.jpg ..\..\JOCN-master\task a\images\sourpatch_watermelon_candy.jpg ..\..\JOCN-master\task a\images\nutrigrain_strawberry_bar.jpg ..\..\JOCN-master\task a\images\austin_cheddar cheese_cheese cracker.jpg ..\..\JOCN-master\task a\images\starburst_favereds_candy.jpg ..\..\JOCN-master\task a\images\poptarts_brown_sugar.jpg,6,0.855807756772,..\..\JOCN-master\task a\images\nutrigrain_strawberry_bar.jpg,2.23100124998,7,7,2.54020763305,0,1
2,1.0,6,..\..\JOCN-master\task a\images\famous_amos_chocolate_chip.jpg ..\..\JOCN-master\task a\images\basil_vanilla.jpg ..\..\JOCN-master\task a\images\lance_toast_cheese_with_pb.JPG ..\..\JOCN-master\task a\images\garden_veggie straws_sea salt.jpg ..\..\JOCN-master\task a\images\ct_crunch_cereal_bar.jpg ..\..\JOCN-master\task a\images\pirates booty_aged white cheddar_ corn puffs.jpg,6,2.99808512046,..\..\JOCN-master\task a\images\famous_amos_chocolate_chip.jpg,1.98150201421,7,7,4.47510969616,0,1
8,1.75,6,1.5 0.75 1.75,1.75,5.11994585395e-06,$1.75,4.5511405915e-06,n/a,n/a,,1,2
7,0.5,6,..\..\JOCN-master\task a\images\skittles_original_candy.jpg ..\..\JOCN-master\task a\images\cheez-it_white_cheddar.JPG ..\..\JOCN-master\task a\images\welch's_berry.jpg ..\..\JOCN-master\task a\images\sourpatchkids_original_candy.jpg ..\..\JOCN-master\task a\images\garden_veggie straws_cheddar.jpg ..\..\JOCN-master\task a\images\garden_veggie straws_zesty ranch.jpg,6,5.12017868459e-06,..\..\JOCN-master\task a\images\skittles_original_candy.jpg,9.10204835236e-06,n/a,n/a,,1,2
4,1.0,2,1.0 1.25,1.0,5.11994585395e-06,$1.25,5.11994585395e-06,n/a,n/a,,1,1
2,0.75,6,..\..\JOCN-master\task a\images\starburst_favereds_candy.jpg ..\..\JOCN-master\task a\images\reeses_peanut butter cups_milk choc.jpg ..\..\JOCN-master\task a\images\lance_toasty_with_pb.jpg ..\..\JOCN-master\task a\images\pringles_sour cream and onion_potato crisps.jpg ..\..\JOCN-master\task a\images\garden_veggie straws_cheddar.jpg ..\..\JOCN-master\task a\images\pirates booty_aged white cheddar_ corn puffs.jpg,6,1.42981477547,..\..\JOCN-master\task a\images\pirates booty_aged white cheddar_ corn puffs.jpg,1.34018237423,7,7,3.66144749173,0,1
1,1.25,2,..\..\JOCN-master\task a\images\grandmas_chocolate chip_cookies.jpg ..\..\JOCN-master\task a\images\welch's_mixed fruit_fruit snacks.jpg,2,1.66601737496,..\..\JOCN-master\task a\images\welch's_mixed fruit_fruit snacks.jpg,2.19032058585,7,7,2.82158397953,0,1
2,1.5,6,..\..\JOCN-master\task a\images\lance_toasty_with_pb.jpg ..\..\JOCN-master\task a\images\slim_jim.jpg ..\..\JOCN-master\task a\images\nabisco_chips ahhoy_mini.jpg ..\..\JOCN-master\task a\images\keebler_cheese_and_peanut_butter.jpg ..\..\JOCN-master\task a\images\keebler_fudge_stripes.jpg ..\..\JOCN-master\task a\images\quaker_chewy_chocolate chip.jpg,6,1.58572157542,..\..\JOCN-master\task a\images\quaker_chewy_chocolate chip.jpg,1.28119828436,7,7,3.27223658026,0,1
2,0.75,2,..\..\JOCN-master\task a\images\lance_toast_cheese_with_pb.JPG ..\..\JOCN-master\task a\images\quaker_chewy_chocolate chip.jpg,2,2.60455122357,..\..\JOCN-master\task a\images\quaker_chewy_chocolate chip.jpg,1.4356236984,5,2,n/a,1,1
1,0.75,12,..\..\JOCN-master\task a\images\sun chips_garden salsa_chips.jpg ..\..\JOCN-master\task a\images\sourpatchkids_original_candy.jpg ..\..\JOCN-master\task a\images\lance_toasty_with_pb.jpg ..\..\JOCN-master\task a\images\skittles_original_candy.jpg ..\..\JOCN-master\task a\images\reeses_peanut butter cups_milk choc.jpg ..\..\JOCN-master\task a\images\m&m's_peanut_butter.jpg ..\..\JOCN-master\task a\images\lays_kc masterpiece_barbecue chips.jpg ..\..\JOCN-master\task a\images\doritos_nacho cheesier_chips.jpg ..\..\JOCN-master\task a\images\nabisco_nutter butter_bites.jpg ..\..\JOCN-master\task a\images\ct_crunch_cereal_bar.jpg ..\..\JOCN-master\task a\images\nabisco_nutter butter_cookies and crackers.jpg ..\..\JOCN-master\task a\images\starburst_favereds_candy.jpg,12,1.79239657451,..\..\JOCN-master\task a\images\nabisco_nutter butter_cookies and crackers.jpg,2.38312266441,7,7,2.96665174281,0,1
5,0.5,3,..\..\JOCN-master\task a\images\keebler_cheese_and_peanut_butter.jpg ..\..\JOCN-master\task a\images\garden_veggie straws_zesty ranch.jpg ..\..\JOCN-master\task a\images\reeses_peanut butter cups_milk choc.jpg,3,1.30582490866,..\..\JOCN-master\task a\images\reeses_peanut butter cups_milk choc.jpg,2.43852446182,7,7,3.47223055013,0,2
2,0.5,2,..\..\JOCN-master\task a\images\garden_veggie straws_zesty ranch.jpg ..\..\JOCN-master\task a\images\sun chips_garden salsa_chips.jpg,2,4.05536481994,..\..\JOCN-master\task a\images\garden_veggie straws_zesty ranch.jpg,3.98100651219,7,7,2.89836689131,0,1
2,0.75,3,..\..\JOCN-master\task a\images\twix_milk chocolate_cookie bars.jpg ..\..\JOCN-master\task a\images\kellogg's_rice krispies_orignal.jpg ..\..\JOCN-master\task a\images\nabisco_oreo_mini.jpg,3,1.67274391535,..\..\JOCN-master\task a\images\kellogg's_rice krispies_orignal.jpg,2.28577726986,7,7,2.83297711425,0,1
2,0.5,2,..\..\JOCN-master\task a\images\snickers_milk chocolate_candy bar.jpg ..\..\JOCN-master\task a\images\lance_toast_cheese_with_pb.JPG,2,0.75716074463,..\..\JOCN-master\task a\images\snickers_milk chocolate_candy bar.jpg,1.17593395873,7,7,2.70792626962,0,1
6,0.75,2,..\..\JOCN-master\task a\images\lays_kc masterpiece_barbecue chips.jpg ..\..\JOCN-master\task a\images\m&m's_peanut_butter.jpg,2,0.876992603997,..\..\JOCN-master\task a\images\m&m's_peanut_butter.jpg,1.89581030514,5,6,3.6439894347,0,2
5,0.5,12,..\..\JOCN-master\task a\images\skittles_original_candy.jpg ..\..\JOCN-master\task a\images\lays_classic_potato chips.jpg ..\..\JOCN-master\task a\images\reeses_peanut butter cups_milk choc.jpg ..\..\JOCN-master\task a\images\skittles_wild berry_candy.jpg ..\..\JOCN-master\task a\images\oreo_thin_crisps.jpg ..\..\JOCN-master\task a\images\keebler_fudge_stripes.jpg ..\..\JOCN-master\task a\images\starburst_orignal_candy.jpg ..\..\JOCN-master\task a\images\poptarts_strawberry_frosted.jpg ..\..\JOCN-master\task a\images\nutrigrain_strawberry_bar.jpg ..\..\JOCN-master\task a\images\sun chips_french onion_chips.jpg ..\..\JOCN-master\task a\images\poptarts_brown_sugar.jpg ..\..\JOCN-master\task a\images\nutrigrain_apple cinnamon_bar.jpg,12,1.25317141251,..\..\JOCN-master\task a\images\poptarts_brown_sugar.jpg,2.58625007328,7,7,3.12101287232,0,2
6,1.25,3,..\..\JOCN-master\task a\images\nabisco_chips ahhoy_mini.jpg ..\..\JOCN-master\task a\images\doritos_nacho cheesier_chips.jpg ..\..\JOCN-master\task a\images\skittles_original_candy.jpg,3,0.989779914031,..\..\JOCN-master\task a\images\nabisco_chips ahhoy_mini.jpg,2.26663643983,7,7,2.57696694694,0,2
4,0.5,6,..\..\JOCN-master\task a\images\welch's_white_grape_raspberry.jpg ..\..\JOCN-master\task a\images\nabisco_nutter butter_cookies and crackers.jpg ..\..\JOCN-master\task a\images\austin_cheddar cheese_cheese cracker.jpg ..\..\JOCN-master\task a\images\keebler_fudge_stripes.jpg ..\..\JOCN-master\task a\images\sun chips_french onion_chips.jpg ..\..\JOCN-master\task a\images\snickers_milk chocolate_candy bar.jpg,6,6.25755637884e-06,..\..\JOCN-master\task a\images\nabisco_nutter butter_cookies and crackers.jpg,1.02398917079e-05,n/a,n/a,,1,1
2,1.0,2,..\..\JOCN-master\task a\images\pringles_the original_potato crisps.jpg ..\..\JOCN-master\task a\images\sun chips_garden salsa_chips.jpg,2,1.12597358203,..\..\JOCN-master\task a\images\pringles_the original_potato crisps.jpg,1.9337671299,4,7,n/a,1,1
8,1.75,12,..\..\JOCN-master\task a\images\m&m's_peanut_butter.jpg ..\..\JOCN-master\task a\images\nestle_babyruth_bar.jpg ..\..\JOCN-master\task a\images\poptarts_brown_sugar.jpg ..\..\JOCN-master\task a\images\garden_veggie straws_sea salt.jpg ..\..\JOCN-master\task a\images\poptarts_strawberry_frosted.jpg ..\..\JOCN-master\task a\images\pringles_cheddar_potato crisps.jpg ..\..\JOCN-master\task a\images\pirates booty_aged white cheddar_ corn puffs.jpg ..\..\JOCN-master\task a\images\baked_cheetos_crunchy.jpg ..\..\JOCN-master\task a\images\oreo_thin_crisps.jpg ..\..\JOCN-master\task a\images\doritos_cool ranch_chips.jpg ..\..\JOCN-master\task a\images\austin_peanut_butter.jpg ..\..\JOCN-master\task a\images\reeses_peanut butter cups_milk choc.jpg,12,5.68898394704e-06,..\..\JOCN-master\task a\images\poptarts_strawberry_frosted.jpg,1.02401245385e-05,n/a,n/a,,1,2
2,1.5,6,..\..\JOCN-master\task a\images\haribo_gold_bears.jpg ..\..\JOCN-master\task a\images\austin_peanut butter_cheese cracker.jpg ..\..\JOCN-master\task a\images\m&m's_peanut_butter.jpg ..\..\JOCN-master\task a\images\grandmas_chocolate brownie_cookie.jpg ..\..\JOCN-master\task a\images\nabisco_oreo_mini.jpg ..\..\JOCN-master\task a\images\welch's_berry.jpg,6,1.72793010389,..\..\JOCN-master\task a\images\welch's_berry.jpg,3.33096808358,7,7,3.59546095063,0,1
6,1.75,6,..\..\JOCN-master\task a\images\m&m's_peanut.jpg ..\..\JOCN-master\task a\images\grandmas_chocolate brownie_cookie.jpg ..\..\JOCN-master\task a\images\cheetos_crunchy_chips.jpg ..\..\JOCN-master\task a\images\austin_peanut butter_cheese cracker.jpg ..\..\JOCN-master\task a\images\lance_toast_cheese_with_pb.JPG ..\..\JOCN-master\task a\images\lance_toasty_with_pb.jpg,6,3.7181327024,..\..\JOCN-master\task a\images\m&m's_peanut.jpg,3.22979293019,7,7,2.83780754847,0,2
5,0.5,12,..\..\JOCN-master\task a\images\cheez itz_original.jpg ..\..\JOCN-master\task a\images\lance_toasty_with_pb.jpg ..\..\JOCN-master\task a\images\skittles_wild berry_candy.jpg ..\..\JOCN-master\task a\images\twix_milk chocolate_cookie bars.jpg ..\..\JOCN-master\task a\images\welch's_tropical_fruits.jpg ..\..\JOCN-master\task a\images\sourpatch_watermelon_candy.jpg ..\..\JOCN-master\task a\images\doritos_nacho cheesier_chips.jpg ..\..\JOCN-master\task a\images\doritos_cool ranch_chips.jpg ..\..\JOCN-master\task a\images\pringles_cheddar_potato crisps.jpg ..\..\JOCN-master\task a\images\reeses_peanut butter cups_milk choc.jpg ..\..\JOCN-master\task a\images\nabisco_oreo_mini.jpg ..\..\JOCN-master\task a\images\ct_crunch_cereal_bar.jpg,12,1.1808559841,..\..\JOCN-master\task a\images\reeses_peanut butter cups_milk choc.jpg,2.59182347613,6,1,n/a,1,2
3,0.75,2,1.0 0.75,0.75,5.68898394704e-06,$0.75,4.5511405915e-06,n/a,n/a,,1,1
5,0.5,2,..\..\JOCN-master\task a\images\pepperidge farms-goldish-cheddar.jpg ..\..\JOCN-master\task a\images\cheez-it_white_cheddar.JPG,2,2.89268426155,..\..\JOCN-master\task a\images\pepperidge farms-goldish-cheddar.jpg,2.11463562958,7,7,3.87270602724,0,2
8,1.25,3,..\..\JOCN-master\task a\images\skittles_wild berry_candy.jpg ..\..\JOCN-master\task a\images\pringles_cheddar_potato crisps.jpg ..\..\JOCN-master\task a\images\starburst_orignal_candy.jpg,3,5.68875111639e-06,..\..\JOCN-master\task a\images\pringles_cheddar_potato crisps.jpg,9.10204835236e-06,n/a,n/a,,1,2
1,0.5,3,..\..\JOCN-master\task a\images\lance_toasty_with_pb.jpg ..\..\JOCN-master\task a\images\haribo_gold_bears.jpg ..\..\JOCN-master\task a\images\nutrigrain_strawberry_bar.jpg,3,2.40889958153,..\..\JOCN-master\task a\images\nutrigrain_strawberry_bar.jpg,1.40626505786,7,7,3.00357603445,0,1
7,1.0,2,1.25 0.75 1.5 0.5 1.75 1.0,1.0,5.11994585395e-06,$1.0,6.25755637884e-06,n/a,n/a,,1,2
8,0.5,6,0.5 1.0 0.75 1.75 1.5 1.25,0.5,5.68875111639e-06,$0.75,4.5511405915e-06,n/a,n/a,,1,2
6,1.0,3,..\..\JOCN-master\task a\images\austin_cheddar cheese_cheese cracker.jpg ..\..\JOCN-master\task a\images\reeses_peanut butter cups_milk choc.jpg ..\..\JOCN-master\task a\images\nestle_crunch_bar.jpg,3,1.05860236543,..\..\JOCN-master\task a\images\reeses_peanut butter cups_milk choc.jpg,2.56732655875,7,7,3.26005155267,0,2
5,1.25,6,..\..\JOCN-master\task a\images\haribo_gold_bears.jpg ..\..\JOCN-master\task a\images\nabisco_chips ahhoy_mini.jpg ..\..\JOCN-master\task a\images\pringles_the original_potato crisps.jpg ..\..\JOCN-master\task a\images\skittles_wild berry_candy.jpg ..\..\JOCN-master\task a\images\snickers_milk chocolate_candy bar.jpg ..\..\JOCN-master\task a\images\cheez-it_white_cheddar.JPG,6,3.26282374747,..\..\JOCN-master\task a\images\haribo_gold_bears.jpg,2.75444714539,7,5,2.84828534094,0,2
5,1.0,2,..\..\JOCN-master\task a\images\reeses_peanut butter cups_milk choc.jpg ..\..\JOCN-master\task a\images\nature valley_oats and honey_crunchy.jpg,2,0.84927634499,..\..\JOCN-master\task a\images\reeses_peanut butter cups_milk choc.jpg,1.72252736776,7,7,3.98864839436,0,2
4,1.25,3,..\..\JOCN-master\task a\images\austin_peanut_butter.jpg ..\..\JOCN-master\task a\images\lance_toast_cheese_with_pb.JPG ..\..\JOCN-master\task a\images\pringles_cheddar_potato crisps.jpg,3,5.68875111639e-06,..\..\JOCN-master\task a\images\austin_peanut_butter.jpg,6.82659447193e-06,n/a,n/a,,1,1
6,1.0,6,..\..\JOCN-master\task a\images\skittles_wild berry_candy.jpg ..\..\JOCN-master\task a\images\welch's_tropical_fruits.jpg ..\..\JOCN-master\task a\images\sun chips_garden salsa_chips.jpg ..\..\JOCN-master\task a\images\cheetos_crunchy_chips.jpg ..\..\JOCN-master\task a\images\pepperidge farms-goldish-cheddar.jpg ..\..\JOCN-master\task a\images\welch's_berry.jpg,6,3.15536180465,..\..\JOCN-master\task a\images\cheetos_crunchy_chips.jpg,n/a,4,2,n/a,1,2
6,0.5,12,..\..\JOCN-master\task a\images\pringles_the original_potato crisps.jpg ..\..\JOCN-master\task a\images\nabisco_nutter butter_cookies and crackers.jpg ..\..\JOCN-master\task a\images\poptarts_strawberry_frosted.jpg ..\..\JOCN-master\task a\images\welch's_berry.jpg ..\..\JOCN-master\task a\images\sourpatchkids_original_candy.jpg ..\..\JOCN-master\task a\images\cheetos_crunchy_chips.jpg ..\..\JOCN-master\task a\images\haribo_gold_bears.jpg ..\..\JOCN-master\task a\images\quaker_chewy_chocolate chip.jpg ..\..\JOCN-master\task a\images\pringles_sour cream and onion_potato crisps.jpg ..\..\JOCN-master\task a\images\sun chips_garden salsa_chips.jpg ..\..\JOCN-master\task a\images\pepperidge farms-goldish-cheddar.jpg ..\..\JOCN-master\task a\images\austin_peanut_butter.jpg,12,1.49028764712,..\..\JOCN-master\task a\images\poptarts_strawberry_frosted.jpg,2.33697896195,4,1,n/a,1,2
4,0.5,3,..\..\JOCN-master\task a\images\cheez-it_white_cheddar.JPG ..\..\JOCN-master\task a\images\skittles_wild berry_candy.jpg ..\..\JOCN-master\task a\images\welch's_tropical_fruits.jpg,3,5.68898394704e-06,..\..\JOCN-master\task a\images\welch's_tropical_fruits.jpg,7.39563256502e-06,n/a,n/a,,1,1
6,1.75,2,..\..\JOCN-master\task a\images\welch's_mixed fruit_fruit snacks.jpg ..\..\JOCN-master\task a\images\doritos_nacho cheesier_chips.jpg,1.75,n/a,0.5,n/a,7,3,n/a,1,2
5,1.25,6,..\..\JOCN-master\task a\images\austin_peanut_butter.jpg ..\..\JOCN-master\task a\images\doritos_nacho cheesier_chips.jpg ..\..\JOCN-master\task a\images\welch's_tropical_fruits.jpg ..\..\JOCN-master\task a\images\nestle_crunch_bar.jpg ..\..\JOCN-master\task a\images\skittles_sour_candy.jpg ..\..\JOCN-master\task a\images\lays_classic_potato chips.jpg,6,n/a,..\..\JOCN-master\task a\images\lays_classic_potato chips.jpg,n/a,4,1,n/a,1,2
2,0.5,2,..\..\JOCN-master\task a\images\snyders_mini_pretzels.jpg ..\..\JOCN-master\task a\images\garden_veggie straws_cheddar.jpg,2,1.29577435134,..\..\JOCN-master\task a\images\snyders_mini_pretzels.jpg,0.161661109421,3,6,n/a,1,1
3,1.75,2,1.75 0.5 1.25 1.0,1.75,5.68875111639e-06,$1.75,4.55090776086e-06,n/a,n/a,,1,1
3,1.75,6,..\..\JOCN-master\task a\images\sun chips_french onion_chips.jpg ..\..\JOCN-master\task a\images\lance_toast_cheese_with_pb.JPG ..\..\JOCN-master\task a\images\nestle_crunch_bar.jpg ..\..\JOCN-master\task a\images\pringles_cheddar_potato crisps.jpg ..\..\JOCN-master\task a\images\kellogg's_rice krispies_orignal.jpg ..\..\JOCN-master\task a\images\twix_milk chocolate_cookie bars.jpg,6,5.11994585395e-06,..\..\JOCN-master\task a\images\twix_milk chocolate_cookie bars.jpg,1.25153455883e-05,n/a,n/a,,1,1
1,1.25,3,..\..\JOCN-master\task a\images\skittles_wild berry_candy.jpg ..\..\JOCN-master\task a\images\lays_classic_potato chips.jpg ..\..\JOCN-master\task a\images\sourpatchkids_original_candy.jpg,3,1.37993290531,..\..\JOCN-master\task a\images\skittles_wild berry_candy.jpg,3.98170396965,5,3,n/a,1,1
1,1.5,3,..\..\JOCN-master\task a\images\lays_classic_potato chips.jpg ..\..\JOCN-master\task a\images\keebler_cheese_and_peanut_butter.jpg ..\..\JOCN-master\task a\images\nature valley_oats and honey_crunchy.jpg,3,2.75262101251,..\..\JOCN-master\task a\images\keebler_cheese_and_peanut_butter.jpg,3.06081249821,7,7,2.44437093125,0,1
6,1.75,2,..\..\JOCN-master\task a\images\cheetos_crunchy_chips.jpg ..\..\JOCN-master\task a\images\pringles_cheddar_potato crisps.jpg,1.75,n/a,0.5,n/a,1,6,n/a,1,2
5,0.5,2,..\..\JOCN-master\task a\images\skittles_original_candy.jpg ..\..\JOCN-master\task a\images\grandmas_oatmeal raisin_cookies.jpg,2,3.58973053447,..\..\JOCN-master\task a\images\grandmas_oatmeal raisin_cookies.jpg,2.75372920791,7,6,2.69305039826,0,2
2,1.0,2,..\..\JOCN-master\task a\images\twix_milk chocolate_cookie bars.jpg ..\..\JOCN-master\task a\images\lays_kc masterpiece_barbecue chips.jpg,1.0,n/a,0.75,n/a,6,6,n/a,1,1
3,1.0,12,0.5 1.75 1.5 1.0,1.0,5.68898394704e-06,$0.5,5.12017868459e-06,n/a,n/a,,1,1
5,1.75,12,..\..\JOCN-master\task a\images\poptarts_strawberry_frosted.jpg ..\..\JOCN-master\task a\images\skinny_pop_popcorn.jpg ..\..\JOCN-master\task a\images\nabisco_nutter butter_cookies and crackers.jpg ..\..\JOCN-master\task a\images\lance_toasty_with_pb.jpg ..\..\JOCN-master\task a\images\welch's_tropical_fruits.jpg ..\..\JOCN-master\task a\images\nabisco_teddy graham_honey.jpg ..\..\JOCN-master\task a\images\grandmas_chocolate chip_cookies.jpg ..\..\JOCN-master\task a\images\barnum's_animal_crackers.jpg ..\..\JOCN-master\task a\images\pringles_the original_potato crisps.jpg ..\..\JOCN-master\task a\images\nestle_crunch_bar.jpg ..\..\JOCN-master\task a\images\snickers_milk chocolate_candy bar.jpg ..\..\JOCN-master\task a\images\starburst_orignal_candy.jpg,12,3.51072269911,..\..\JOCN-master\task a\images\poptarts_strawberry_frosted.jpg,1.71649088967,2,5,n/a,1,2
6,1.0,6,..\..\JOCN-master\task a\images\nabisco_oreo_mini.jpg ..\..\JOCN-master\task a\images\cheetos_crunchy_chips.jpg ..\..\JOCN-master\task a\images\nabisco_mini_ritz.jpg ..\..\JOCN-master\task a\images\nature valley_oats and honey_crunchy.jpg ..\..\JOCN-master\task a\images\reeses_peanut butter cups_milk choc.jpg ..\..\JOCN-master\task a\images\starburst_favereds_candy.jpg,6,1.28638086072,..\..\JOCN-master\task a\images\nabisco_oreo_mini.jpg,1.64913503313,7,6,2.22673742869,0,2
1,1.5,6,..\..\JOCN-master\task a\images\starburst_favereds_candy.jpg ..\..\JOCN-master\task a\images\twix_milk chocolate_cookie bars.jpg ..\..\JOCN-master\task a\images\lance_toast_cheese_with_pb.JPG ..\..\JOCN-master\task a\images\grandmas_chocolate chip_cookies.jpg ..\..\JOCN-master\task a\images\sun chips_garden salsa_chips.jpg ..\..\JOCN-master\task a\images\lance_toasty_with_pb.jpg,6,2.49515961041,..\..\JOCN-master\task a\images\grandmas_chocolate chip_cookies.jpg,1.84077771637,6,6,2.73205056507,0,1
3,1.5,6,..\..\JOCN-master\task a\images\quaker_chewy_chocolate chip.jpg ..\..\JOCN-master\task a\images\snickers_milk chocolate_candy bar.jpg ..\..\JOCN-master\task a\images\nature valley_oats and honey_crunchy.jpg ..\..\JOCN-master\task a\images\nestle_babyruth_bar.jpg ..\..\JOCN-master\task a\images\famous_amos_chocolate_chip.jpg ..\..\JOCN-master\task a\images\pringles_sour cream and onion_potato crisps.jpg,6,5.68875111639e-06,..\..\JOCN-master\task a\images\snickers_milk chocolate_candy bar.jpg,9.102281183e-06,n/a,n/a,,1,1
7,1.75,2,1.0 1.75 0.5 1.5 1.25 0.75,1.75,6.25778920949e-06,$0.75,4.5511405915e-06,n/a,n/a,,1,2
6,0.75,12,..\..\JOCN-master\task a\images\kellogg's_rice krispies_orignal.jpg ..\..\JOCN-master\task a\images\snickers_milk chocolate_candy bar.jpg ..\..\JOCN-master\task a\images\doritos_cool ranch_chips.jpg ..\..\JOCN-master\task a\images\sourpatch_watermelon_candy.jpg ..\..\JOCN-master\task a\images\poptarts_brown_sugar.jpg ..\..\JOCN-master\task a\images\austin_peanut butter_cheese cracker.jpg ..\..\JOCN-master\task a\images\pringles_cheddar_potato crisps.jpg ..\..\JOCN-master\task a\images\welch's_mixed fruit_fruit snacks.jpg ..\..\JOCN-master\task a\images\kitkat_crisp wafers_milk choc.jpg ..\..\JOCN-master\task a\images\nutrigrain_apple cinnamon_bar.jpg ..\..\JOCN-master\task a\images\twix_milk chocolate_cookie bars.jpg ..\..\JOCN-master\task a\images\garden_veggie straws_cheddar.jpg,12,1.40132539696,..\..\JOCN-master\task a\images\welch's_mixed fruit_fruit snacks.jpg,2.7610308947,7,7,3.08831485501,0,2
4,1.25,6,0.5 1.0 1.5 0.75 1.25 1.75,1.25,6.25778920949e-06,$1.0,5.12017868459e-06,n/a,n/a,,1,1
1,1.5,3,..\..\JOCN-master\task a\images\welch's_white_grape_raspberry.jpg ..\..\JOCN-master\task a\images\keebler_cheese_and_peanut_butter.jpg ..\..\JOCN-master\task a\images\pirates booty_aged white cheddar_ corn puffs.jpg,3,0.695476139896,..\..\JOCN-master\task a\images\pirates booty_aged white cheddar_ corn puffs.jpg,0.770699158544,7,7,3.35645372979,0,1
3,1.0,3,..\..\JOCN-master\task a\images\cheetos_crunchy_chips.jpg ..\..\JOCN-master\task a\images\pepperidge farms-goldish-cheddar.jpg ..\..\JOCN-master\task a\images\m&m's_peanut.jpg,3,5.68898394704e-06,..\..\JOCN-master\task a\images\pepperidge farms-goldish-cheddar.jpg,1.0808929801e-05,n/a,n/a,,1,1
8,0.75,3,0.75 1.25 1.5,0.75,5.11994585395e-06,$0.75,4.5511405915e-06,n/a,n/a,,1,2
1,0.75,3,..\..\JOCN-master\task a\images\skinny_pop_popcorn.jpg ..\..\JOCN-master\task a\images\snickers_milk chocolate_candy bar.jpg ..\..\JOCN-master\task a\images\baked_cheetos_crunchy.jpg,3,2.42949335347,..\..\JOCN-master\task a\images\snickers_milk chocolate_candy bar.jpg,2.14399142587,7,6,2.59306365368,0,1
6,1.75,6,..\..\JOCN-master\task a\images\skittles_sour_candy.jpg ..\..\JOCN-master\task a\images\m&m's_peanut_butter.jpg ..\..\JOCN-master\task a\images\austin_cheddar cheese_cheese cracker.jpg ..\..\JOCN-master\task a\images\pringles_the original_potato crisps.jpg ..\..\JOCN-master\task a\images\pringles_sour cream and onion_potato crisps.jpg ..\..\JOCN-master\task a\images\nabisco_chips ahhoy_mini.jpg,6,1.21112541552,..\..\JOCN-master\task a\images\nabisco_chips ahhoy_mini.jpg,2.30108435894,6,6,2.71423638333,0,2
6,0.5,2,..\..\JOCN-master\task a\images\nabisco_mini_ritz.jpg ..\..\JOCN-master\task a\images\basil_vanilla.jpg,2,1.41778903687,..\..\JOCN-master\task a\images\nabisco_mini_ritz.jpg,2.21766137797,6,6,2.99214250897,0,2
7,1.75,6,0.75 1.25 1.75 1.0,1.75,5.68898394704e-06,$0.75,4.55090776086e-06,n/a,n/a,,1,2
7,0.5,3,0.5 1.5,0.5,5.11994585395e-06,$1.5,5.11994585395e-06,n/a,n/a,,1,2
1,1.0,2,..\..\JOCN-master\task a\images\grandmas_vanilla sandwhich creme_cookies.jpg ..\..\JOCN-master\task a\images\barnum's_animal_crackers.jpg,2,1.00671402458,..\..\JOCN-master\task a\images\grandmas_vanilla sandwhich creme_cookies.jpg,1.53091711109,7,7,4.49041337171,0,1
6,1.25,2,..\..\JOCN-master\task a\images\lance_toasty_with_pb.jpg ..\..\JOCN-master\task a\images\skittles_original_candy.jpg,2,1.72366400738,..\..\JOCN-master\task a\images\skittles_original_candy.jpg,3.24480874813,7,7,2.99102179799,0,2
7,0.75,2,0.5 0.75 1.25,0.75,5.68898394704e-06,$1.25,5.11994585395e-06,n/a,n/a,,1,2
5,0.5,12,0.5 1.5 1.25,0.5,2.61534873163,$0.5,2.58189067896,7,4,3.55829772563,0,2
7,1.75,6,1.5 0.5 1.75,1.75,5.68875111639e-06,$0.5,5.11994585395e-06,n/a,n/a,,1,2
1,1.25,3,..\..\JOCN-master\task a\images\keebler_cheese_and_peanut_butter.jpg ..\..\JOCN-master\task a\images\skittles_sour_candy.jpg ..\..\JOCN-master\task a\images\basil_vanilla.jpg,3,0.932904125657,..\..\JOCN-master\task a\images\skittles_sour_candy.jpg,1.88185148244,7,5,2.51162381889,0,1
4,0.75,3,0.5 1.5 1.0 1.75 0.75 1.25,0.75,5.11994585395e-06,$1.25,4.5511405915e-06,n/a,n/a,,1,1
7,1.0,3,..\..\JOCN-master\task a\images\skittles_original_candy.jpg ..\..\JOCN-master\task a\images\m&m's_peanut_butter.jpg ..\..\JOCN-master\task a\images\kellogg's_rice krispies_orignal.jpg,3,5.11994585395e-06,..\..\JOCN-master\task a\images\kellogg's_rice krispies_orignal.jpg,1.02401245385e-05,n/a,n/a,,1,2
5,1.0,2,..\..\JOCN-master\task a\images\nabisco_mini_ritz.jpg ..\..\JOCN-master\task a\images\cheez-it_white_cheddar.JPG,2,0.976032717852,..\..\JOCN-master\task a\images\nabisco_mini_ritz.jpg,1.45565939043,7,6,4.32554372982,0,2
4,1.5,2,..\..\JOCN-master\task a\images\lays_classic_potato chips.jpg ..\..\JOCN-master\task a\images\pringles_sour cream and onion_potato crisps.jpg,2,5.11994585395e-06,..\..\JOCN-master\task a\images\pringles_sour cream and onion_potato crisps.jpg,9.67108644545e-06,n/a,n/a,,1,1
2,1.5,12,..\..\JOCN-master\task a\images\poptarts_strawberry_frosted.jpg ..\..\JOCN-master\task a\images\slim_jim.jpg ..\..\JOCN-master\task a\images\welch's_tropical_fruits.jpg ..\..\JOCN-master\task a\images\lays_classic_potato chips.jpg ..\..\JOCN-master\task a\images\lance_toasty_with_pb.jpg ..\..\JOCN-master\task a\images\keebler_fudge_stripes.jpg ..\..\JOCN-master\task a\images\snyders_mini_pretzels.jpg ..\..\JOCN-master\task a\images\welch's_berry.jpg ..\..\JOCN-master\task a\images\austin_cheddar cheese_cheese cracker.jpg ..\..\JOCN-master\task a\images\basil_vanilla.jpg ..\..\JOCN-master\task a\images\sourpatch_watermelon_candy.jpg ..\..\JOCN-master\task a\images\nuture valley_crunchy_bar.jpg,12,2.43797320896,..\..\JOCN-master\task a\images\slim_jim.jpg,4.02448269539,7,6,2.20616982575,0,1
1,0.5,2,..\..\JOCN-master\task a\images\garden_veggie straws_zesty ranch.jpg ..\..\JOCN-master\task a\images\grandmas_oatmeal raisin_cookies.jpg,2,0.68177900603,..\..\JOCN-master\task a\images\grandmas_oatmeal raisin_cookies.jpg,1.17913111346,6,7,2.81935393601,0,1
4,1.0,3,1.0 1.75,1.0,5.11994585395e-06,$1.75,4.5511405915e-06,n/a,n/a,,1,1
2,0.5,2,..\..\JOCN-master\task a\images\doritos_nacho cheesier_chips.jpg ..\..\JOCN-master\task a\images\welch's_tropical_fruits.jpg,2,1.84900043416,..\..\JOCN-master\task a\images\welch's_tropical_fruits.jpg,1.99020885606,7,7,3.12469984009,0,1
8,1.25,6,..\..\JOCN-master\task a\images\poptarts_brown_sugar.jpg ..\..\JOCN-master\task a\images\skittles_wild berry_candy.jpg ..\..\JOCN-master\task a\images\welch's_mixed fruit_fruit snacks.jpg ..\..\JOCN-master\task a\images\grandmas_chocolate chip_cookies.jpg ..\..\JOCN-master\task a\images\welch's_tropical_fruits.jpg ..\..\JOCN-master\task a\images\nabisco_oreo_mini.jpg,6,5.11994585395e-06,..\..\JOCN-master\task a\images\grandmas_chocolate chip_cookies.jpg,9.67131927609e-06,n/a,n/a,,1,2
1,1.0,12,..\..\JOCN-master\task a\images\kellogg's_rice krispies_orignal.jpg ..\..\JOCN-master\task a\images\twix_milk chocolate_cookie bars.jpg ..\..\JOCN-master\task a\images\nutrigrain_strawberry_bar.jpg ..\..\JOCN-master\task a\images\cheez itz_original.jpg ..\..\JOCN-master\task a\images\pringles_sour cream and onion_potato crisps.jpg ..\..\JOCN-master\task a\images\lays_classic_potato chips.jpg ..\..\JOCN-master\task a\images\baked_cheetos_crunchy.jpg ..\..\JOCN-master\task a\images\m&m's_peanut_butter.jpg ..\..\JOCN-master\task a\images\cheez-it_white_cheddar.JPG ..\..\JOCN-master\task a\images\skittles_original_candy.jpg ..\..\JOCN-master\task a\images\barnum's_animal_crackers.jpg ..\..\JOCN-master\task a\images\slim_jim.jpg,12,0.99543409911,..\..\JOCN-master\task a\images\slim_jim.jpg,1.84350439999,6,6,3.46952036419,0,1
2,1.75,6,..\..\JOCN-master\task a\images\doritos_cool ranch_chips.jpg ..\..\JOCN-master\task a\images\nabisco_oreo_mini.jpg ..\..\JOCN-master\task a\images\lance_toasty_with_pb.jpg ..\..\JOCN-master\task a\images\famous_amos_chocolate_chip.jpg ..\..\JOCN-master\task a\images\austin_cheddar cheese_cheese cracker.jpg ..\..\JOCN-master\task a\images\welch's_tropical_fruits.jpg,6,0.963252632646,..\..\JOCN-master\task a\images\nabisco_oreo_mini.jpg,2.01738011953,6,7,2.81550597236,0,1
5,1.25,6,..\..\JOCN-master\task a\images\baked_cheetos_crunchy.jpg ..\..\JOCN-master\task a\images\nature valley_oats and honey_crunchy.jpg ..\..\JOCN-master\task a\images\keebler_fudge_stripes.jpg ..\..\JOCN-master\task a\images\nabisco_nutter butter_bites.jpg ..\..\JOCN-master\task a\images\grandmas_oatmeal raisin_cookies.jpg ..\..\JOCN-master\task a\images\sourpatch_watermelon_candy.jpg,6,0.815764247905,..\..\JOCN-master\task a\images\grandmas_oatmeal raisin_cookies.jpg,1.74779285397,7,7,3.04103735718,0,2
2,1.75,6,..\..\JOCN-master\task a\images\snickers_milk chocolate_candy bar.jpg ..\..\JOCN-master\task a\images\twix_milk chocolate_cookie bars.jpg ..\..\JOCN-master\task a\images\cheez itz_original.jpg ..\..\JOCN-master\task a\images\starburst_orignal_candy.jpg ..\..\JOCN-master\task a\images\kitkat_crisp wafers_milk choc.jpg ..\..\JOCN-master\task a\images\poptarts_brown_sugar.jpg,6,0.970939457184,..\..\JOCN-master\task a\images\poptarts_brown_sugar.jpg,1.88641283242,7,7,2.81650095875,0,1
1,1.75,12,..\..\JOCN-master\task a\images\swedish fish_original_candy.jpg ..\..\JOCN-master\task a\images\nabisco_teddy graham_honey.jpg ..\..\JOCN-master\task a\images\kitkat_crisp wafers_milk choc.jpg ..\..\JOCN-master\task a\images\grandmas_vanilla sandwhich creme_cookies.jpg ..\..\JOCN-master\task a\images\pepperidge farms-goldish-cheddar.jpg ..\..\JOCN-master\task a\images\lays_kc masterpiece_barbecue chips.jpg ..\..\JOCN-master\task a\images\snickers_milk chocolate_candy bar.jpg ..\..\JOCN-master\task a\images\skittles_sour_candy.jpg ..\..\JOCN-master\task a\images\cheez itz_original.jpg ..\..\JOCN-master\task a\images\austin_peanut butter_cheese cracker.jpg ..\..\JOCN-master\task a\images\baked_cheetos_crunchy.jpg ..\..\JOCN-master\task a\images\doritos_cool ranch_chips.jpg,12,0.740172589431,..\..\JOCN-master\task a\images\snickers_milk chocolate_candy bar.jpg,2.02237041155,7,7,2.63017738517,0,1
6,1.0,2,..\..\JOCN-master\task a\images\lays_classic_potato chips.jpg ..\..\JOCN-master\task a\images\nature valley_oats and honey_crunchy.jpg,2,1.43033075775,..\..\JOCN-master\task a\images\nature valley_oats and honey_crunchy.jpg,1.04140599724,7,7,2.4141765933,0,2
6,1.75,3,..\..\JOCN-master\task a\images\pepperidge farms-goldish-cheddar.jpg ..\..\JOCN-master\task a\images\welch's_white_grape_raspberry.jpg ..\..\JOCN-master\task a\images\garden_veggie straws_cheddar.jpg,3,1.31134711136,..\..\JOCN-master\task a\images\welch's_white_grape_raspberry.jpg,1.56207628455,7,7,3.03135999106,0,2
5,1.25,3,..\..\JOCN-master\task a\images\nabisco_nutter butter_bites.jpg ..\..\JOCN-master\task a\images\nabisco_chips ahhoy_mini.jpg ..\..\JOCN-master\task a\images\grandmas_chocolate chip_cookies.jpg,3,1.59449668438,..\..\JOCN-master\task a\images\nabisco_nutter butter_bites.jpg,2.14089951548,7,7,3.22989021009,0,2
4,1.0,3,1.25 1.75 1.5 0.5 0.75 1.0,1.0,5.68898394704e-06,$0.5,5.12017868459e-06,n/a,n/a,,1,1
5,1.25,3,..\..\JOCN-master\task a\images\snyders_mini_pretzels.jpg ..\..\JOCN-master\task a\images\austin_cheddar cheese_cheese cracker.jpg ..\..\JOCN-master\task a\images\nutrigrain_strawberry_bar.jpg,3,1.08152516792,..\..\JOCN-master\task a\images\nutrigrain_strawberry_bar.jpg,1.81203347561,7,7,2.33926134347,0,2
1,1.0,6,..\..\JOCN-master\task a\images\austin_peanut_butter.jpg ..\..\JOCN-master\task a\images\sourpatchkids_original_candy.jpg ..\..\JOCN-master\task a\images\lays_classic_potato chips.jpg ..\..\JOCN-master\task a\images\grandmas_chocolate brownie_cookie.jpg ..\..\JOCN-master\task a\images\starburst_orignal_candy.jpg ..\..\JOCN-master\task a\images\doritos_cool ranch_chips.jpg,6,2.63111206936,..\..\JOCN-master\task a\images\doritos_cool ranch_chips.jpg,2.35035751807,7,5,2.7155465344,0,1
