Trial Type, Money Option, Item Option, Trial Options, Choice 1, Choice 1 RT, Choice 2, Choice 2 RT, Decision Rating , Selected Option Rating, PostChoiceRT, Computer Response, Choosing For
6,1.5,12,..\..\JOCN-master\task a\images\nature valley_oats and honey_crunchy.jpg ..\..\JOCN-master\task a\images\belvita_blueberry.JPG ..\..\JOCN-master\task a\images\skittles_original_candy.jpg ..\..\JOCN-master\task a\images\skittles_sour_candy.jpg ..\..\JOCN-master\task a\images\nabisco_chips ahhoy_mini.jpg ..\..\JOCN-master\task a\images\starburst_verry berry_candy.jpg ..\..\JOCN-master\task a\images\nabisco_ritz bits_cookies.jpg ..\..\JOCN-master\task a\images\kettle_jalepeno.jpg ..\..\JOCN-master\task a\images\m&m's_milk_chocholate.jpg ..\..\JOCN-master\task a\images\nabisco_teddy graham_honey.jpg ..\..\JOCN-master\task a\images\lays_kc masterpiece_barbecue chips.jpg ..\..\JOCN-master\task a\images\nestle_crunch_bar.jpg,1.5,n/a,0.75,n/a,6,7,n/a,1,2
5,1.75,6,1.0 1.75 1.5 0.5,1.75,2.25854570424,$1.0,4.40040209057,3,5,n/a,1,2
6,1.25,2,..\..\JOCN-master\task a\images\nestle_butterfinger_bar.jpg ..\..\JOCN-master\task a\images\lays_classic_potato chips.jpg,2,2.90943860356,..\..\JOCN-master\task a\images\lays_classic_potato chips.jpg,1.52399544208,6,4,n/a,1,2
1,0.75,2,0.75 1.0,0.75,3.49183673126,$0.75,1.63352017535,3,3,n/a,1,1
5,1.75,12,..\..\JOCN-master\task a\images\baked_lays_classic.jpg ..\..\JOCN-master\task a\images\nutrigrain_apple cinnamon_bar.jpg ..\..\JOCN-master\task a\images\nabisco_mini_ritz.jpg ..\..\JOCN-master\task a\images\pringles_the original_potato crisps.jpg ..\..\JOCN-master\task a\images\sourpatchkids_original_candy.jpg ..\..\JOCN-master\task a\images\keebler_chips_deluxe.jpg ..\..\JOCN-master\task a\images\welch's_tropical_fruits.jpg ..\..\JOCN-master\task a\images\sunchips_harvest cheddar_chips.jpg ..\..\JOCN-master\task a\images\austin_lemon ohs_lemon cookies.jpg ..\..\JOCN-master\task a\images\keebler_chips delux_cookies_crackers.jpg ..\..\JOCN-master\task a\images\swedish fish_original_candy.jpg ..\..\JOCN-master\task a\images\milkyway_orginal_candy.jpg,12,0.923409372917,..\..\JOCN-master\task a\images\welch's_tropical_fruits.jpg,1.32533494744,4,4,3.21392776136,0,2
2,1.5,12,1.5 0.75,1.5,1.50471921643,$1.5,1.43295845459,4,3,3.69536520669,0,1
1,1.5,2,..\..\JOCN-master\task a\images\sunchips_harvest cheddar_chips.jpg ..\..\JOCN-master\task a\images\keebler_fudge_stripes.jpg,2,2.10618421872,..\..\JOCN-master\task a\images\sunchips_harvest cheddar_chips.jpg,1.48519154201,4,4,4.39284554159,0,1
1,1.0,2,..\..\JOCN-master\task a\images\kellogg's_rice krispies_orignal.jpg ..\..\JOCN-master\task a\images\keebler_fudge_stripes.jpg,2,2.06314778648,..\..\JOCN-master\task a\images\keebler_fudge_stripes.jpg,1.80690949492,4,5,3.4147375176,0,1
6,0.75,12,1.5 1.0 0.75,0.75,1.18034170871,$1.0,1.61452099856,5,5,4.39810890012,0,2
2,1.25,2,1.0 1.5 0.5 1.75 0.75 1.25,1.25,2.12539957318,$1.5,1.99992604443,5,4,3.97915876145,0,1
1,1.25,2,..\..\JOCN-master\task a\images\poptarts_brown_sugar.jpg ..\..\JOCN-master\task a\images\welch's_tropical_fruits.jpg,2,1.08104275027,..\..\JOCN-master\task a\images\poptarts_brown_sugar.jpg,0.997193671938,5,1,n/a,1,1
6,1.5,6,1.0 1.5,1.5,2.18278736132,$1.0,1.63488380163,5,4,3.20397505304,0,2
1,1.0,12,1.0 1.25,1.0,2.83031528385,$1.0,3.16499764193,6,1,n/a,1,1
1,1.5,6,..\..\JOCN-master\task a\images\welch's_white_grape_raspberry.jpg ..\..\JOCN-master\task a\images\belvita_golden_oats.JPG ..\..\JOCN-master\task a\images\pringles_cheddar_potato crisps.jpg ..\..\JOCN-master\task a\images\sun chips_french onion_chips.jpg ..\..\JOCN-master\task a\images\skittles_darkside_candy.jpg ..\..\JOCN-master\task a\images\sun chips_garden salsa_chips.jpg,6,2.5229623401,..\..\JOCN-master\task a\images\welch's_white_grape_raspberry.jpg,1.71893995546,4,5,4.17897466908,0,1
3,1.0,6,..\..\JOCN-master\task a\images\garden_veggie straws_zesty ranch.jpg ..\..\JOCN-master\task a\images\milkyway_orginal_candy.jpg ..\..\JOCN-master\task a\images\sun chips_original_chips.jpg ..\..\JOCN-master\task a\images\nabisco_teddy graham_honey.jpg ..\..\JOCN-master\task a\images\m&m's_peanut_butter.jpg ..\..\JOCN-master\task a\images\kellogg's_rice krispies_orignal.jpg,6,6.25778920949e-06,..\..\JOCN-master\task a\images\kellogg's_rice krispies_orignal.jpg,7.96443782747e-06,n/a,n/a,,1,1
5,1.5,3,..\..\JOCN-master\task a\images\baked_lays_barbeque.jpg ..\..\JOCN-master\task a\images\pringles_the original_potato crisps.jpg ..\..\JOCN-master\task a\images\fritos_original_corn chips.jpg,3,1.43686103128,..\..\JOCN-master\task a\images\pringles_the original_potato crisps.jpg,1.9797447169,5,5,3.83399144281,0,2
4,1.0,3,..\..\JOCN-master\task a\images\fritos_original_corn chips.jpg ..\..\JOCN-master\task a\images\skittles_darkside_candy.jpg ..\..\JOCN-master\task a\images\garden_veggie straws_zesty ranch.jpg,3,5.12000406161e-06,..\..\JOCN-master\task a\images\garden_veggie straws_zesty ranch.jpg,1.19467149489e-05,n/a,n/a,,1,1
2,0.5,6,1.75 0.5 1.0 0.75,0.5,2.13215854019,$0.5,2.26723832398,6,6,3.05660613498,0,1
7,1.75,6,..\..\JOCN-master\task a\images\combos_cheddar cheese_pretzel.jpg ..\..\JOCN-master\task a\images\snickers_almond_bar.jpg ..\..\JOCN-master\task a\images\sun chips_garden salsa_chips.jpg ..\..\JOCN-master\task a\images\nestle_butterfinger_bar.jpg ..\..\JOCN-master\task a\images\famous_amos_chocolate_chip.jpg ..\..\JOCN-master\task a\images\nabisco_chips ahhoy_mini.jpg,6,5.68892573938e-06,..\..\JOCN-master\task a\images\nestle_butterfinger_bar.jpg,1.4222227037e-05,n/a,n/a,,1,2
6,1.75,3,0.5 1.25 1.5 0.75 1.0 1.75,1.75,2.16825282323,$1.25,1.767634555,4,4,4.25898261077,0,2
1,1.0,2,..\..\JOCN-master\task a\images\lays_kc masterpiece_barbecue chips.jpg ..\..\JOCN-master\task a\images\welch's_mixed fruit_fruit snacks.jpg,2,2.27843007189,..\..\JOCN-master\task a\images\welch's_mixed fruit_fruit snacks.jpg,1.75628010486,5,5,3.59574937721,0,1
7,1.75,12,..\..\JOCN-master\task a\images\garden_veggie straws_zesty ranch.jpg ..\..\JOCN-master\task a\images\baked_lays_classic.jpg ..\..\JOCN-master\task a\images\milkyway_orginal_candy.jpg ..\..\JOCN-master\task a\images\welch's_mixed fruit_fruit snacks.jpg ..\..\JOCN-master\task a\images\nabisco_ritz bits_cookies.jpg ..\..\JOCN-master\task a\images\baked_lays_barbeque.jpg ..\..\JOCN-master\task a\images\nabisco_oreo_mini.jpg ..\..\JOCN-master\task a\images\poptarts_brown_sugar.jpg ..\..\JOCN-master\task a\images\nabisco_mini_ritz.jpg ..\..\JOCN-master\task a\images\garden_veggie straws_sea salt.jpg ..\..\JOCN-master\task a\images\doritos_nacho cheesier_chips.jpg ..\..\JOCN-master\task a\images\3 musketeers_candy bar.jpg,12,5.12000406161e-06,..\..\JOCN-master\task a\images\nabisco_ritz bits_cookies.jpg,1.36533635668e-05,n/a,n/a,,1,2
3,0.75,12,..\..\JOCN-master\task a\images\belvita_golden_oats.JPG ..\..\JOCN-master\task a\images\baked_lays_classic.jpg ..\..\JOCN-master\task a\images\welch's_mixed fruit_fruit snacks.jpg ..\..\JOCN-master\task a\images\nabisco_teddy graham_honey.jpg ..\..\JOCN-master\task a\images\baked_cheetos_crunchy.jpg ..\..\JOCN-master\task a\images\starburst_orignal_candy.jpg ..\..\JOCN-master\task a\images\austin_lemon ohs_lemon cookies.jpg ..\..\JOCN-master\task a\images\kettle_jalepeno.jpg ..\..\JOCN-master\task a\images\skittles_darkside_candy.jpg ..\..\JOCN-master\task a\images\3 musketeers_candy bar.jpg ..\..\JOCN-master\task a\images\pepperidge farms-goldish-cheddar.jpg ..\..\JOCN-master\task a\images\twix_milk chocolate_cookie bars.jpg,12,5.68892573938e-06,..\..\JOCN-master\task a\images\kettle_jalepeno.jpg,9.10222297534e-06,n/a,n/a,,1,1
1,0.75,2,1.25 0.75,0.75,1.88784244965,$1.25,1.89966225077,3,7,n/a,1,1
2,0.75,3,..\..\JOCN-master\task a\images\keebler_chips_deluxe.jpg ..\..\JOCN-master\task a\images\cheetos_crunchy_chips.jpg ..\..\JOCN-master\task a\images\nabisco_ritz bits_cookies.jpg,3,2.15357492521,..\..\JOCN-master\task a\images\cheetos_crunchy_chips.jpg,2.62040046352,3,5,n/a,1,1
3,0.75,12,..\..\JOCN-master\task a\images\pringles_sour cream and onion_potato crisps.jpg ..\..\JOCN-master\task a\images\baked_lays_classic.jpg ..\..\JOCN-master\task a\images\welch's_berry.jpg ..\..\JOCN-master\task a\images\pringles_cheddar_potato crisps.jpg ..\..\JOCN-master\task a\images\baked_lays_barbeque.jpg ..\..\JOCN-master\task a\images\pringles_the original_potato crisps.jpg ..\..\JOCN-master\task a\images\snyders_mini_pretzels.jpg ..\..\JOCN-master\task a\images\m&m's_peanut.jpg ..\..\JOCN-master\task a\images\sun chips_french onion_chips.jpg ..\..\JOCN-master\task a\images\m&m's_peanut_butter.jpg ..\..\JOCN-master\task a\images\kettle_bbq.jpg ..\..\JOCN-master\task a\images\lays_kc masterpiece_barbecue chips.jpg,12,5.68892573938e-06,..\..\JOCN-master\task a\images\pringles_cheddar_potato crisps.jpg,7.39557435736e-06,n/a,n/a,,1,1
5,1.75,12,1.5 1.75 0.75,1.75,1.8900582713,$1.5,2.41618306382,1,6,n/a,1,2
6,1.0,3,..\..\JOCN-master\task a\images\nabisco_chips ahhoy_mini.jpg ..\..\JOCN-master\task a\images\nutrigrain_strawberry_bar.jpg ..\..\JOCN-master\task a\images\baked_lays_classic.jpg,3,2.59426912875,..\..\JOCN-master\task a\images\nabisco_chips ahhoy_mini.jpg,1.61103200394,7,5,n/a,1,2
2,0.5,12,..\..\JOCN-master\task a\images\snyders_mini_pretzels.jpg ..\..\JOCN-master\task a\images\sourpatchkids_original_candy.jpg ..\..\JOCN-master\task a\images\kitkat_crisp wafers_milk choc.jpg ..\..\JOCN-master\task a\images\poptarts_brown_sugar.jpg ..\..\JOCN-master\task a\images\poptarts_strawberry_frosted.jpg ..\..\JOCN-master\task a\images\mini_fudge_stripes.jpg ..\..\JOCN-master\task a\images\pepperidge farms-goldish-cheddar.jpg ..\..\JOCN-master\task a\images\milkyway_orginal_candy.jpg ..\..\JOCN-master\task a\images\austin_lemon ohs_lemon cookies.jpg ..\..\JOCN-master\task a\images\snickers_milk chocolate_candy bar.jpg ..\..\JOCN-master\task a\images\welch's_berry.jpg ..\..\JOCN-master\task a\images\doritos_nacho cheesier_chips.jpg,12,2.38596426352,..\..\JOCN-master\task a\images\kitkat_crisp wafers_milk choc.jpg,1.42033822706,5,5,3.9871067059,0,1
7,1.25,12,1.0 0.75 1.25 1.5 0.5 1.75,1.25,5.68892573938e-06,$1.5,4.55108238384e-06,n/a,n/a,,1,2
6,1.75,2,1.75 0.5 1.0,1.75,1.87760984816,$1.0,1.83324904297,5,5,3.828381631,0,2
5,0.5,12,0.75 0.5 1.25 1.0 1.5 1.75,0.5,2.8577772493,$1.5,2.29923433269,4,4,4.01205930323,0,2
6,1.25,3,..\..\JOCN-master\task a\images\welch's_tropical_fruits.jpg ..\..\JOCN-master\task a\images\garden_veggie straws_zesty ranch.jpg ..\..\JOCN-master\task a\images\skittles_original_candy.jpg,3,2.0936026756,..\..\JOCN-master\task a\images\skittles_original_candy.jpg,2.2361730173,5,4,4.3041131224,0,2
7,1.0,2,..\..\JOCN-master\task a\images\jacklinks_beef_steak.jpg ..\..\JOCN-master\task a\images\skittles_wild berry_candy.jpg,2,5.68886753172e-06,..\..\JOCN-master\task a\images\jacklinks_beef_steak.jpg,7.96443782747e-06,n/a,n/a,,1,2
1,1.75,2,..\..\JOCN-master\task a\images\cheetos_crunchy_chips.jpg ..\..\JOCN-master\task a\images\lays_kc masterpiece_barbecue chips.jpg,2,1.28991593531,..\..\JOCN-master\task a\images\lays_kc masterpiece_barbecue chips.jpg,2.18483934301,3,5,n/a,1,1
2,0.75,6,1.5 1.75 0.5 0.75,0.75,1.78909531335,$1.5,3.39921652642,4,4,3.55649321055,0,1
4,0.5,12,0.5 0.75,0.5,5.68892573938e-06,$0.75,5.12000406161e-06,n/a,n/a,,1,1
6,1.25,2,1.25 0.5 0.75 1.0 1.5 1.75,1.25,1.78353499487,$0.5,2.78369712818,3,5,n/a,1,2
2,0.75,3,1.25 1.75 0.5 0.75,0.75,1.8552934812,$1.25,3.39783014462,4,4,4.34492519964,0,1
6,0.5,12,..\..\JOCN-master\task a\images\teddy_grahams_chocolate.jpg ..\..\JOCN-master\task a\images\skittles_darkside_candy.jpg ..\..\JOCN-master\task a\images\sourpatchkids_original_candy.jpg ..\..\JOCN-master\task a\images\kitkat_crisp wafers_milk choc.jpg ..\..\JOCN-master\task a\images\reeses_peanut butter cups_milk choc.jpg ..\..\JOCN-master\task a\images\nabisco_chips ahhoy_mini.jpg ..\..\JOCN-master\task a\images\pringles_the original_potato crisps.jpg ..\..\JOCN-master\task a\images\nutrigrain_strawberry_bar.jpg ..\..\JOCN-master\task a\images\fritos_original_corn chips.jpg ..\..\JOCN-master\task a\images\nabisco_oreo_mini.jpg ..\..\JOCN-master\task a\images\nabisco_teddy graham_honey.jpg ..\..\JOCN-master\task a\images\welch's_tropical_fruits.jpg,12,2.79714907106,..\..\JOCN-master\task a\images\teddy_grahams_chocolate.jpg,n/a,5,7,n/a,1,2
3,0.5,6,1.0 1.25 0.5 0.75,0.5,5.68892573938e-06,$0.75,4.55108238384e-06,n/a,n/a,,1,1
6,0.5,2,1.5 0.5 1.0,0.5,1.94477797125,$1.0,2.2502990932,5,5,3.86666272237,0,2
2,0.5,6,1.75 0.75 1.25 0.5 1.0 1.5,0.5,2.14486808324,$0.5,2.61634770024,6,6,2.90081197489,0,1
8,0.75,3,..\..\JOCN-master\task a\images\nestle_crunch_bar.jpg ..\..\JOCN-master\task a\images\poptarts_strawberry_frosted.jpg ..\..\JOCN-master\task a\images\nestle_butterfinger_bar.jpg,3,5.68886753172e-06,..\..\JOCN-master\task a\images\poptarts_strawberry_frosted.jpg,8.53330129758e-06,n/a,n/a,,1,2
1,0.5,12,..\..\JOCN-master\task a\images\sunchips_harvest cheddar_chips.jpg ..\..\JOCN-master\task a\images\m&m's_peanut_butter.jpg ..\..\JOCN-master\task a\images\pringles_cheddar_potato crisps.jpg ..\..\JOCN-master\task a\images\welch's_white_grape_raspberry.jpg ..\..\JOCN-master\task a\images\austin_lemon ohs_lemon cookies.jpg ..\..\JOCN-master\task a\images\haribo_gold_bears.jpg ..\..\JOCN-master\task a\images\sun chips_garden salsa_chips.jpg ..\..\JOCN-master\task a\images\belvita_golden_oats.JPG ..\..\JOCN-master\task a\images\skittles_darkside_candy.jpg ..\..\JOCN-master\task a\images\nabisco_nutter butter_bites.jpg ..\..\JOCN-master\task a\images\baked_lays_classic.jpg ..\..\JOCN-master\task a\images\cheetos_crunchy_chips.jpg,12,2.30146665202,..\..\JOCN-master\task a\images\sun chips_garden salsa_chips.jpg,2.77840987634,3,2,n/a,1,1
6,1.5,2,1.5 1.75,1.5,2.87002769922,$1.5,3.79714565771,4,4,4.35279065516,0,2
3,0.75,12,0.5 0.75 1.0,0.75,6.82665267959e-06,$1.0,4.5511405915e-06,n/a,n/a,,1,1
4,0.5,6,0.5 1.75 1.25 1.0 0.75 1.5,0.5,6.25773100182e-06,$1.25,4.5511405915e-06,n/a,n/a,,1,1
7,0.5,12,..\..\JOCN-master\task a\images\twix_milk chocolate_cookie bars.jpg ..\..\JOCN-master\task a\images\welch's_tropical_fruits.jpg ..\..\JOCN-master\task a\images\doritos_cool ranch_chips.jpg ..\..\JOCN-master\task a\images\baked_lays_classic.jpg ..\..\JOCN-master\task a\images\nestle_butterfinger_cups.jpg ..\..\JOCN-master\task a\images\skittles_darkside_candy.jpg ..\..\JOCN-master\task a\images\belvita_golden_oats.JPG ..\..\JOCN-master\task a\images\kettle_bbq.jpg ..\..\JOCN-master\task a\images\m&m's_peanut.jpg ..\..\JOCN-master\task a\images\kitkat_crisp wafers_milk choc.jpg ..\..\JOCN-master\task a\images\nabisco_nutter butter_bites.jpg ..\..\JOCN-master\task a\images\nature_valley_sweet_and_salty.jpg,12,5.12000406161e-06,..\..\JOCN-master\task a\images\nature_valley_sweet_and_salty.jpg,8.53330129758e-06,n/a,n/a,,1,2
5,0.75,6,..\..\JOCN-master\task a\images\welch's_white_grape_raspberry.jpg ..\..\JOCN-master\task a\images\kettle_jalepeno.jpg ..\..\JOCN-master\task a\images\hersheys_milk choc_almond.jpg ..\..\JOCN-master\task a\images\nestle_butterfinger_cups.jpg ..\..\JOCN-master\task a\images\welch's_berry.jpg ..\..\JOCN-master\task a\images\keebler_chips delux_cookies_crackers.jpg,6,2.02916976949,..\..\JOCN-master\task a\images\kettle_jalepeno.jpg,n/a,4,7,n/a,1,2
4,1.75,12,1.25 1.0 1.75 0.5 1.5 0.75,1.75,7.96443782747e-06,$1.0,5.12000406161e-06,n/a,n/a,,1,1
2,1.5,12,..\..\JOCN-master\task a\images\nabisco_chips ahhoy_mini.jpg ..\..\JOCN-master\task a\images\skittles_wild berry_candy.jpg ..\..\JOCN-master\task a\images\mini_fudge_stripes.jpg ..\..\JOCN-master\task a\images\belvita_golden_oats.JPG ..\..\JOCN-master\task a\images\snickers_almond_bar.jpg ..\..\JOCN-master\task a\images\reeses_peanut butter cups_milk choc.jpg ..\..\JOCN-master\task a\images\m&m's_peanut.jpg ..\..\JOCN-master\task a\images\keebler_chips delux_cookies_crackers.jpg ..\..\JOCN-master\task a\images\skittles_original_candy.jpg ..\..\JOCN-master\task a\images\sun chips_french onion_chips.jpg ..\..\JOCN-master\task a\images\combos_cheddar cheese_pretzel.jpg ..\..\JOCN-master\task a\images\nutrigrain_blueberry_bar.jpg,12,1.368410633,..\..\JOCN-master\task a\images\nutrigrain_blueberry_bar.jpg,0.995520570199,6,6,4.35318148171,0,1
3,1.25,12,..\..\JOCN-master\task a\images\nabisco_mini_ritz.jpg ..\..\JOCN-master\task a\images\hersey_milk_chocolate.jpg ..\..\JOCN-master\task a\images\nabisco_oreo_mini.jpg ..\..\JOCN-master\task a\images\nestle_butterfinger_cups.jpg ..\..\JOCN-master\task a\images\nutrigrain_apple cinnamon_bar.jpg ..\..\JOCN-master\task a\images\kettle_jalepeno.jpg ..\..\JOCN-master\task a\images\baked_lays_classic.jpg ..\..\JOCN-master\task a\images\doritos_nacho cheesier_chips.jpg ..\..\JOCN-master\task a\images\snickers_almond_bar.jpg ..\..\JOCN-master\task a\images\austin_lemon ohs_lemon cookies.jpg ..\..\JOCN-master\task a\images\milkyway_orginal_candy.jpg ..\..\JOCN-master\task a\images\kellogg's_rice krispies_orignal.jpg,12,5.68886753172e-06,..\..\JOCN-master\task a\images\baked_lays_classic.jpg,1.02400081232e-05,n/a,n/a,,1,1
3,1.0,6,1.0 1.25 1.75 0.5,1.0,5.68886753172e-06,$1.25,4.55108238384e-06,n/a,n/a,,1,1
2,1.0,6,..\..\JOCN-master\task a\images\nutrigrain_strawberry_bar.jpg ..\..\JOCN-master\task a\images\skittles_original_candy.jpg ..\..\JOCN-master\task a\images\sun chips_french onion_chips.jpg ..\..\JOCN-master\task a\images\baked_lays_classic.jpg ..\..\JOCN-master\task a\images\m&m's_milk_chocholate.jpg ..\..\JOCN-master\task a\images\pringles_sour cream and onion_potato crisps.jpg,6,1.42770988721,..\..\JOCN-master\task a\images\nutrigrain_strawberry_bar.jpg,3.48438827111,5,6,3.65261606325,0,1
6,1.25,12,..\..\JOCN-master\task a\images\starburst_favereds_candy.jpg ..\..\JOCN-master\task a\images\swedish fish_original_candy.jpg ..\..\JOCN-master\task a\images\baked_lays_classic.jpg ..\..\JOCN-master\task a\images\snyders_mini_pretzels.jpg ..\..\JOCN-master\task a\images\keebler_chips delux_cookies_crackers.jpg ..\..\JOCN-master\task a\images\nutrigrain_strawberry_bar.jpg ..\..\JOCN-master\task a\images\m&m's_milk_chocholate.jpg ..\..\JOCN-master\task a\images\sourpatch_watermelon_candy.jpg ..\..\JOCN-master\task a\images\twix_milk chocolate_cookie bars.jpg ..\..\JOCN-master\task a\images\nabisco_mini_ritz.jpg ..\..\JOCN-master\task a\images\m&m's_peanut_butter.jpg ..\..\JOCN-master\task a\images\pepperidge farms-goldish-cheddar.jpg,12,2.02581787709,..\..\JOCN-master\task a\images\nutrigrain_strawberry_bar.jpg,1.75553144736,6,3,n/a,1,2
1,0.75,6,0.5 0.75 1.75,0.75,1.60355623724,$0.5,1.55103244772,6,5,4.11626720248,0,1
4,1.25,3,1.25 0.75,1.25,5.12000406161e-06,$1.25,5.12000406161e-06,n/a,n/a,,1,1
8,1.5,2,0.5 1.5 0.75 1.75,1.5,5.68892573938e-06,$0.5,9.67108644545e-06,n/a,n/a,,1,2
5,1.25,3,..\..\JOCN-master\task a\images\keebler_chips delux_cookies_crackers.jpg ..\..\JOCN-master\task a\images\m&m's_peanut_butter.jpg ..\..\JOCN-master\task a\images\baked_lays_sour cream and onion.jpg,3,1.89962584188,..\..\JOCN-master\task a\images\baked_lays_sour cream and onion.jpg,2.82346927689,4,5,4.00604046055,0,2
5,1.75,2,1.25 1.75,1.75,1.79851155955,$1.25,2.86771516653,4,3,4.05454505119,0,2
5,0.75,6,..\..\JOCN-master\task a\images\keebler_chips_deluxe.jpg ..\..\JOCN-master\task a\images\baked_lays_classic.jpg ..\..\JOCN-master\task a\images\cheetos_crunchy_chips.jpg ..\..\JOCN-master\task a\images\snickers_milk chocolate_candy bar.jpg ..\..\JOCN-master\task a\images\hersey_milk_chocolate.jpg ..\..\JOCN-master\task a\images\poptarts_brown_sugar.jpg,6,2.63039925182,..\..\JOCN-master\task a\images\poptarts_brown_sugar.jpg,1.95173434261,5,6,n/a,1,2
2,1.5,12,1.0 0.5 0.75 1.5 1.75 1.25,1.5,2.10644647642,$1.0,2.78318114608,5,4,3.96535808983,0,1
2,1.75,6,0.5 1.75 1.25,1.75,1.50853190868,$0.5,2.44974294765,6,6,3.09368345782,0,1
8,1.75,2,1.75 1.0,1.75,5.68892573938e-06,$1.0,4.55108238384e-06,n/a,n/a,,1,2
2,0.75,3,..\..\JOCN-master\task a\images\3 musketeers_candy bar.jpg ..\..\JOCN-master\task a\images\nestle_butterfinger_bar.jpg ..\..\JOCN-master\task a\images\welch's_white_grape_raspberry.jpg,3,1.15960514569,..\..\JOCN-master\task a\images\nestle_butterfinger_bar.jpg,2.97826788173,1,1,n/a,1,1
3,1.25,2,1.75 1.25 1.0,1.25,6.25778920949e-06,$1.0,4.55108238384e-06,n/a,n/a,,1,1
3,1.5,2,..\..\JOCN-master\task a\images\baked_cheetos_crunchy.jpg ..\..\JOCN-master\task a\images\doritos_nacho cheesier_chips.jpg,2,5.11994585395e-06,..\..\JOCN-master\task a\images\doritos_nacho cheesier_chips.jpg,8.53335950524e-06,n/a,n/a,,1,1
2,0.75,6,..\..\JOCN-master\task a\images\poptarts_strawberry_frosted.jpg ..\..\JOCN-master\task a\images\combos_cheddar cheese_pretzel.jpg ..\..\JOCN-master\task a\images\haribo_gold_bears.jpg ..\..\JOCN-master\task a\images\reeses_peanut butter cups_milk choc.jpg ..\..\JOCN-master\task a\images\kettle_original.jpg ..\..\JOCN-master\task a\images\baked_lays_sour cream and onion.jpg,6,3.82942042185,..\..\JOCN-master\task a\images\poptarts_strawberry_frosted.jpg,2.32709793368,5,4,3.33367997617,0,1
5,1.75,12,1.25 1.75 0.75,1.75,1.69864541903,$0.75,1.28488468338,5,4,4.14940383303,0,2
1,0.75,3,1.75 0.75,0.75,2.69007511035,$0.75,1.66486423754,4,5,3.86525870499,0,1
1,1.25,12,0.5 1.5 1.25,1.25,2.24307818862,$0.5,1.8510381935,6,7,3.24311516644,0,1
8,0.5,12,..\..\JOCN-master\task a\images\combos_cheddar cheese_pretzel.jpg ..\..\JOCN-master\task a\images\nabisco_teddy graham_honey.jpg ..\..\JOCN-master\task a\images\starburst_verry berry_candy.jpg ..\..\JOCN-master\task a\images\skittles_original_candy.jpg ..\..\JOCN-master\task a\images\poptarts_strawberry_frosted.jpg ..\..\JOCN-master\task a\images\nabisco_nutter butter_bites.jpg ..\..\JOCN-master\task a\images\nestle_crunch_bar.jpg ..\..\JOCN-master\task a\images\jacklinks_beef_steak.jpg ..\..\JOCN-master\task a\images\nature valley_oats and honey_crunchy.jpg ..\..\JOCN-master\task a\images\nutrigrain_blueberry_bar.jpg ..\..\JOCN-master\task a\images\nestle_butterfinger_bar.jpg ..\..\JOCN-master\task a\images\garden_veggie straws_zesty ranch.jpg,12,5.68886753172e-06,..\..\JOCN-master\task a\images\nestle_crunch_bar.jpg,7.39557435736e-06,n/a,n/a,,1,2
2,1.0,3,1.75 0.75 1.5 0.5 1.25 1.0,1.0,2.09892690519,$0.5,3.23420238669,5,6,n/a,1,1
6,1.5,2,..\..\JOCN-master\task a\images\kettle_jalepeno.jpg ..\..\JOCN-master\task a\images\skittles_sour_candy.jpg,2,2.21837760904,..\..\JOCN-master\task a\images\skittles_sour_candy.jpg,1.81009242736,4,5,3.81156186695,0,2
1,0.5,12,..\..\JOCN-master\task a\images\lays_kc masterpiece_barbecue chips.jpg ..\..\JOCN-master\task a\images\baked_lays_sour cream and onion.jpg ..\..\JOCN-master\task a\images\snickers_milk chocolate_candy bar.jpg ..\..\JOCN-master\task a\images\nabisco_nutter butter_bites.jpg ..\..\JOCN-master\task a\images\pringles_cheddar_potato crisps.jpg ..\..\JOCN-master\task a\images\nature valley_oats and honey_crunchy.jpg ..\..\JOCN-master\task a\images\welch's_white_grape_raspberry.jpg ..\..\JOCN-master\task a\images\nutrigrain_apple cinnamon_bar.jpg ..\..\JOCN-master\task a\images\hersey_milk_chocolate.jpg ..\..\JOCN-master\task a\images\welch's_mixed fruit_fruit snacks.jpg ..\..\JOCN-master\task a\images\poptarts_brown_sugar.jpg ..\..\JOCN-master\task a\images\baked_lays_classic.jpg,12,1.77022982534,..\..\JOCN-master\task a\images\nutrigrain_apple cinnamon_bar.jpg,1.61238994135,5,5,3.09136921848,0,1
1,0.75,3,1.75 0.75,0.75,2.13502744603,$0.75,1.76686541742,3,3,3.38107466494,0,1
1,1.5,2,..\..\JOCN-master\task a\images\pringles_the original_potato crisps.jpg ..\..\JOCN-master\task a\images\kettle_jalepeno.jpg,2,1.29695820884,..\..\JOCN-master\task a\images\pringles_the original_potato crisps.jpg,2.82043482439,3,5,3.63343427313,0,1
8,1.75,12,..\..\JOCN-master\task a\images\combos_cheddar cheese_pretzel.jpg ..\..\JOCN-master\task a\images\sourpatchkids_original_candy.jpg ..\..\JOCN-master\task a\images\cheez itz_original.jpg ..\..\JOCN-master\task a\images\jacklinks_beef_steak.jpg ..\..\JOCN-master\task a\images\lays_kc masterpiece_barbecue chips.jpg ..\..\JOCN-master\task a\images\austin_lemon ohs_lemon cookies.jpg ..\..\JOCN-master\task a\images\milkyway_orginal_candy.jpg ..\..\JOCN-master\task a\images\sunchips_harvest cheddar_chips.jpg ..\..\JOCN-master\task a\images\starburst_favereds_candy.jpg ..\..\JOCN-master\task a\images\nabisco_mini_ritz.jpg ..\..\JOCN-master\task a\images\m&m's_milk_chocholate.jpg ..\..\JOCN-master\task a\images\sourpatch_watermelon_candy.jpg,12,5.68886753172e-06,..\..\JOCN-master\task a\images\cheez itz_original.jpg,1.59288756549e-05,n/a,n/a,,1,2
4,0.5,12,..\..\JOCN-master\task a\images\skittles_sour_candy.jpg ..\..\JOCN-master\task a\images\nabisco_oreo_mini.jpg ..\..\JOCN-master\task a\images\snyders_mini_pretzels.jpg ..\..\JOCN-master\task a\images\garden_veggie straws_zesty ranch.jpg ..\..\JOCN-master\task a\images\starburst_verry berry_candy.jpg ..\..\JOCN-master\task a\images\sun chips_garden salsa_chips.jpg ..\..\JOCN-master\task a\images\garden_veggie straws_sea salt.jpg ..\..\JOCN-master\task a\images\jacklinks_beef_jerky_original.jpg ..\..\JOCN-master\task a\images\skittles_wild berry_candy.jpg ..\..\JOCN-master\task a\images\belvita_blueberry.JPG ..\..\JOCN-master\task a\images\baked_lays_sour cream and onion.jpg ..\..\JOCN-master\task a\images\kettle_bbq.jpg,12,5.68886753172e-06,..\..\JOCN-master\task a\images\nabisco_oreo_mini.jpg,9.67114465311e-06,n/a,n/a,,1,1
1,1.25,3,1.75 0.75 1.25,1.25,1.79265029897,$0.75,2.44969629875,5,4,3.75442495878,0,1
5,1.0,3,..\..\JOCN-master\task a\images\nabisco_oreo_mini.jpg ..\..\JOCN-master\task a\images\poptarts_strawberry_frosted.jpg ..\..\JOCN-master\task a\images\reeses_peanut butter cups_milk choc.jpg,3,2.46736029373,..\..\JOCN-master\task a\images\nabisco_oreo_mini.jpg,1.99444309494,5,5,4.10475175688,0,2
4,1.5,6,1.5 1.0,1.5,5.68892573938e-06,$1.5,5.12000406161e-06,n/a,n/a,,1,1
6,1.25,3,1.25 1.75,1.25,2.03558455873,$1.25,1.78341097716,2,7,n/a,1,2
1,0.75,2,0.5 1.0 1.5 1.75 0.75 1.25,0.75,1.53297250619,$0.5,2.04910875048,3,4,3.20465544402,0,1
8,0.75,12,..\..\JOCN-master\task a\images\famous_amos_chocolate_chip.jpg ..\..\JOCN-master\task a\images\nabisco_oreo_mini.jpg ..\..\JOCN-master\task a\images\kettle_jalepeno.jpg ..\..\JOCN-master\task a\images\poptarts_strawberry_frosted.jpg ..\..\JOCN-master\task a\images\baked_cheetos_crunchy.jpg ..\..\JOCN-master\task a\images\lays_classic_potato chips.jpg ..\..\JOCN-master\task a\images\sun chips_french onion_chips.jpg ..\..\JOCN-master\task a\images\nestle_butterfinger_bar.jpg ..\..\JOCN-master\task a\images\baked_lays_barbeque.jpg ..\..\JOCN-master\task a\images\nabisco_nutter butter_bites.jpg ..\..\JOCN-master\task a\images\belvita_golden_oats.JPG ..\..\JOCN-master\task a\images\keebler_chips_deluxe.jpg,12,5.68886753172e-06,..\..\JOCN-master\task a\images\nestle_butterfinger_bar.jpg,1.36533053592e-05,n/a,n/a,,1,2
3,1.0,6,..\..\JOCN-master\task a\images\haribo_gold_bears.jpg ..\..\JOCN-master\task a\images\pepperidge farms-goldish-cheddar.jpg ..\..\JOCN-master\task a\images\nabisco_chips ahhoy_mini.jpg ..\..\JOCN-master\task a\images\pringles_sour cream and onion_potato crisps.jpg ..\..\JOCN-master\task a\images\milkyway_orginal_candy.jpg ..\..\JOCN-master\task a\images\swedish fish_original_candy.jpg,6,5.68886753172e-06,..\..\JOCN-master\task a\images\haribo_gold_bears.jpg,1.02400081232e-05,n/a,n/a,,1,1
6,1.75,6,..\..\JOCN-master\task a\images\jacklinks_beef_steak.jpg ..\..\JOCN-master\task a\images\mini_fudge_stripes.jpg ..\..\JOCN-master\task a\images\sunchips_harvest cheddar_chips.jpg ..\..\JOCN-master\task a\images\m&m's_peanut_butter.jpg ..\..\JOCN-master\task a\images\garden_veggie straws_cheddar.jpg ..\..\JOCN-master\task a\images\starburst_favereds_candy.jpg,6,1.75397496775,..\..\JOCN-master\task a\images\starburst_favereds_candy.jpg,3.85191940208,3,5,4.04850231513,0,2
1,1.0,3,0.75 1.0 1.75 1.25 1.5 0.5,1.0,2.29785819084,$0.5,3.1169060645,4,4,3.39921140642,0,1
3,1.25,12,..\..\JOCN-master\task a\images\poptarts_brown_sugar.jpg ..\..\JOCN-master\task a\images\m&m's_peanut.jpg ..\..\JOCN-master\task a\images\belvita_blueberry.JPG ..\..\JOCN-master\task a\images\sun chips_garden salsa_chips.jpg ..\..\JOCN-master\task a\images\welch's_mixed fruit_fruit snacks.jpg ..\..\JOCN-master\task a\images\milkyway_orginal_candy.jpg ..\..\JOCN-master\task a\images\baked_lays_classic.jpg ..\..\JOCN-master\task a\images\nestle_crunch_bar.jpg ..\..\JOCN-master\task a\images\kitkat_crisp wafers_milk choc.jpg ..\..\JOCN-master\task a\images\garden_veggie straws_sea salt.jpg ..\..\JOCN-master\task a\images\skittles_darkside_candy.jpg ..\..\JOCN-master\task a\images\skittles_wild berry_candy.jpg,12,5.12000406161e-06,..\..\JOCN-master\task a\images\poptarts_brown_sugar.jpg,9.10222297534e-06,n/a,n/a,,1,1
2,1.5,3,..\..\JOCN-master\task a\images\fritos_original_corn chips.jpg ..\..\JOCN-master\task a\images\baked_lays_sour cream and onion.jpg ..\..\JOCN-master\task a\images\snyders_mini_pretzels.jpg,3,1.60223186424,..\..\JOCN-master\task a\images\baked_lays_sour cream and onion.jpg,2.32023315335,3,5,4.04535067157,0,1
4,1.75,3,..\..\JOCN-master\task a\images\belvita_blueberry.JPG ..\..\JOCN-master\task a\images\kellogg's_rice krispies_orignal.jpg ..\..\JOCN-master\task a\images\nabisco_chips ahhoy_mini.jpg,3,5.68886753172e-06,..\..\JOCN-master\task a\images\belvita_blueberry.JPG,9.67108644545e-06,n/a,n/a,,1,1
4,1.25,6,1.5 0.5 1.0 1.75 1.25 0.75,1.25,5.68886753172e-06,$0.5,5.12000406161e-06,n/a,n/a,,1,1
2,1.25,12,..\..\JOCN-master\task a\images\nutrigrain_apple cinnamon_bar.jpg ..\..\JOCN-master\task a\images\lays_classic_potato chips.jpg ..\..\JOCN-master\task a\images\m&m's_peanut.jpg ..\..\JOCN-master\task a\images\hersey_milk_chocolate.jpg ..\..\JOCN-master\task a\images\combos_cheddar cheese_pretzel.jpg ..\..\JOCN-master\task a\images\nabisco_chips ahhoy_mini.jpg ..\..\JOCN-master\task a\images\nutrigrain_strawberry_bar.jpg ..\..\JOCN-master\task a\images\twix_milk chocolate_cookie bars.jpg ..\..\JOCN-master\task a\images\reeses_peanut butter cups_milk choc.jpg ..\..\JOCN-master\task a\images\starburst_orignal_candy.jpg ..\..\JOCN-master\task a\images\nabisco_teddy graham_honey.jpg ..\..\JOCN-master\task a\images\pringles_sour cream and onion_potato crisps.jpg,12,2.69498518895,..\..\JOCN-master\task a\images\combos_cheddar cheese_pretzel.jpg,3.89557250973,5,5,3.06395447068,0,1
7,0.75,6,1.25 0.75 1.5 0.5 1.75 1.0,0.75,5.12000406161e-06,$1.5,7.3955161497e-06,n/a,n/a,,1,2
1,1.5,12,..\..\JOCN-master\task a\images\belvita_blueberry.JPG ..\..\JOCN-master\task a\images\austin_lemon ohs_lemon cookies.jpg ..\..\JOCN-master\task a\images\kettle_jalepeno.jpg ..\..\JOCN-master\task a\images\starburst_favereds_candy.jpg ..\..\JOCN-master\task a\images\sourpatchkids_original_candy.jpg ..\..\JOCN-master\task a\images\nutrigrain_blueberry_bar.jpg ..\..\JOCN-master\task a\images\kellogg's_rice krispies_orignal.jpg ..\..\JOCN-master\task a\images\lays_kc masterpiece_barbecue chips.jpg ..\..\JOCN-master\task a\images\baked_lays_sour cream and onion.jpg ..\..\JOCN-master\task a\images\sun chips_french onion_chips.jpg ..\..\JOCN-master\task a\images\pringles_the original_potato crisps.jpg ..\..\JOCN-master\task a\images\kettle_bbq.jpg,12,2.51065955253,..\..\JOCN-master\task a\images\pringles_the original_potato crisps.jpg,n/a,1,3,n/a,1,1
6,0.5,6,..\..\JOCN-master\task a\images\austin_lemon ohs_lemon cookies.jpg ..\..\JOCN-master\task a\images\m&m's_milk_chocholate.jpg ..\..\JOCN-master\task a\images\lays_classic_potato chips.jpg ..\..\JOCN-master\task a\images\doritos_cool ranch_chips.jpg ..\..\JOCN-master\task a\images\pringles_the original_potato crisps.jpg ..\..\JOCN-master\task a\images\famous_amos_chocolate_chip.jpg,6,1.37966552755,..\..\JOCN-master\task a\images\lays_classic_potato chips.jpg,2.07100072649,5,5,2.95122575609,0,2
6,0.75,3,..\..\JOCN-master\task a\images\welch's_berry.jpg ..\..\JOCN-master\task a\images\nature valley_oats and honey_crunchy.jpg ..\..\JOCN-master\task a\images\snickers_almond_bar.jpg,3,2.42222409323,..\..\JOCN-master\task a\images\snickers_almond_bar.jpg,1.96964523528,3,4,2.9575808121,0,2
5,1.25,3,1.25 1.0 0.75,1.25,1.43019251764,$0.75,1.65192372567,5,5,3.44656513521,0,2
2,1.5,6,..\..\JOCN-master\task a\images\poptarts_brown_sugar.jpg ..\..\JOCN-master\task a\images\snyders_mini_pretzels.jpg ..\..\JOCN-master\task a\images\combos_cheddar cheese_pretzel.jpg ..\..\JOCN-master\task a\images\nature_valley_sweet_and_salty.jpg ..\..\JOCN-master\task a\images\kitkat_crisp wafers_milk choc.jpg ..\..\JOCN-master\task a\images\baked_lays_barbeque.jpg,6,1.94814351696,..\..\JOCN-master\task a\images\nature_valley_sweet_and_salty.jpg,n/a,4,3,n/a,1,1
7,0.75,12,..\..\JOCN-master\task a\images\nabisco_ritz bits_cookies.jpg ..\..\JOCN-master\task a\images\pringles_the original_potato crisps.jpg ..\..\JOCN-master\task a\images\kettle_bbq.jpg ..\..\JOCN-master\task a\images\baked_lays_barbeque.jpg ..\..\JOCN-master\task a\images\snyders_mini_pretzels.jpg ..\..\JOCN-master\task a\images\nature valley_oats and honey_crunchy.jpg ..\..\JOCN-master\task a\images\belvita_golden_oats.JPG ..\..\JOCN-master\task a\images\starburst_orignal_candy.jpg ..\..\JOCN-master\task a\images\jacklinks_beef_jerky_original.jpg ..\..\JOCN-master\task a\images\skittles_darkside_candy.jpg ..\..\JOCN-master\task a\images\reeses_peanut butter cups_milk choc.jpg ..\..\JOCN-master\task a\images\jacklinks_beef_steak.jpg,12,5.68886753172e-06,..\..\JOCN-master\task a\images\baked_lays_barbeque.jpg,8.53335950524e-06,n/a,n/a,,1,2
4,1.5,2,..\..\JOCN-master\task a\images\skittles_wild berry_candy.jpg ..\..\JOCN-master\task a\images\nestle_butterfinger_cups.jpg,2,5.68886753172e-06,..\..\JOCN-master\task a\images\nestle_butterfinger_cups.jpg,7.96443782747e-06,n/a,n/a,,1,1
1,1.75,2,1.25 1.75 1.5,1.75,1.22507570486,$1.25,2.43267116579,5,4,3.73916793196,0,1
5,1.5,2,1.5 0.75,1.5,1.62240750296,$0.75,1.70164118713,5,5,3.37570776866,0,2
6,0.75,6,..\..\JOCN-master\task a\images\nutrigrain_blueberry_bar.jpg ..\..\JOCN-master\task a\images\doritos_cool ranch_chips.jpg ..\..\JOCN-master\task a\images\lays_kc masterpiece_barbecue chips.jpg ..\..\JOCN-master\task a\images\skittles_original_candy.jpg ..\..\JOCN-master\task a\images\m&m's_milk_chocholate.jpg ..\..\JOCN-master\task a\images\nature valley_oats and honey_crunchy.jpg,6,1.55126114096,..\..\JOCN-master\task a\images\nutrigrain_blueberry_bar.jpg,2.0074871445,5,6,3.72128207044,0,2
2,0.5,6,..\..\JOCN-master\task a\images\doritos_cool ranch_chips.jpg ..\..\JOCN-master\task a\images\3 musketeers_candy bar.jpg ..\..\JOCN-master\task a\images\m&m's_peanut_butter.jpg ..\..\JOCN-master\task a\images\sourpatchkids_original_candy.jpg ..\..\JOCN-master\task a\images\nestle_crunch_bar.jpg ..\..\JOCN-master\task a\images\skittles_wild berry_candy.jpg,6,1.30316876713,..\..\JOCN-master\task a\images\nestle_crunch_bar.jpg,3.15640343993,3,5,2.51370708947,0,1
3,0.5,6,1.0 0.75 1.75 0.5,0.5,5.12000406161e-06,$0.5,4.55108238384e-06,n/a,n/a,,1,1
4,1.75,3,..\..\JOCN-master\task a\images\3 musketeers_candy bar.jpg ..\..\JOCN-master\task a\images\keebler_fudge_stripes.jpg ..\..\JOCN-master\task a\images\keebler_chips_deluxe.jpg,3,6.25778920949e-06,..\..\JOCN-master\task a\images\keebler_fudge_stripes.jpg,1.13777932711e-05,n/a,n/a,,1,1
2,0.75,12,..\..\JOCN-master\task a\images\reeses_peanut butter cups_milk choc.jpg ..\..\JOCN-master\task a\images\belvita_golden_oats.JPG ..\..\JOCN-master\task a\images\hersey_milk_chocolate.jpg ..\..\JOCN-master\task a\images\skittles_sour_candy.jpg ..\..\JOCN-master\task a\images\keebler_chips_deluxe.jpg ..\..\JOCN-master\task a\images\sun chips_french onion_chips.jpg ..\..\JOCN-master\task a\images\nature_valley_sweet_and_salty.jpg ..\..\JOCN-master\task a\images\welch's_tropical_fruits.jpg ..\..\JOCN-master\task a\images\kettle_jalepeno.jpg ..\..\JOCN-master\task a\images\pepperidge farms-goldish-cheddar.jpg ..\..\JOCN-master\task a\images\nabisco_nutter butter_bites.jpg ..\..\JOCN-master\task a\images\baked_cheetos_crunchy.jpg,12,2.04636556905,..\..\JOCN-master\task a\images\nature_valley_sweet_and_salty.jpg,2.12766602589,5,4,3.68353971664,0,1
2,1.25,3,1.25 0.5 1.75 1.0,1.25,1.42593324772,$0.5,1.84938386502,5,6,3.67817111377,0,1
8,0.75,3,0.75 1.0 1.5,0.75,6.25778920949e-06,$0.75,4.55108238384e-06,n/a,n/a,,1,2
6,1.5,6,1.5 0.5,1.5,2.53115206223,$0.5,1.11632750469,5,6,2.54478320503,0,2
8,1.0,6,1.0 1.25 1.75 0.5,1.0,6.25778920949e-06,$1.75,4.5511405915e-06,n/a,n/a,,1,2
5,1.0,2,1.75 1.0,1.0,2.07930365746,$1.0,1.53403007035,4,4,3.77196493594,0,2
7,1.0,2,..\..\JOCN-master\task a\images\kettle_original.jpg ..\..\JOCN-master\task a\images\3 musketeers_candy bar.jpg,2,5.68886753172e-06,..\..\JOCN-master\task a\images\3 musketeers_candy bar.jpg,9.10222297534e-06,n/a,n/a,,1,2
6,1.25,2,1.75 1.0 1.25,1.25,2.14225745288,$1.0,0.89855917549,4,4,3.40962434572,0,2
2,0.5,3,..\..\JOCN-master\task a\images\reeses_peanut butter cups_milk choc.jpg ..\..\JOCN-master\task a\images\kitkat_crisp wafers_milk choc.jpg ..\..\JOCN-master\task a\images\m&m's_peanut.jpg,3,2.35740775609,..\..\JOCN-master\task a\images\m&m's_peanut.jpg,3.05984993849,3,4,4.22914894816,0,1
5,0.75,2,0.5 0.75,0.75,2.91990900057,$0.75,0.966330320691,5,5,n/a,1,2
1,1.5,2,1.5 1.25,1.5,1.48640156834,$1.5,3.08198824333,3,3,3.77700073901,0,1
5,0.5,3,..\..\JOCN-master\task a\images\starburst_favereds_candy.jpg ..\..\JOCN-master\task a\images\baked_lays_classic.jpg ..\..\JOCN-master\task a\images\jacklinks_beef_jerky_original.jpg,3,1.89275480388,..\..\JOCN-master\task a\images\baked_lays_classic.jpg,1.80115347874,4,5,3.05940279202,0,2
6,0.5,12,..\..\JOCN-master\task a\images\kettle_bbq.jpg ..\..\JOCN-master\task a\images\starburst_favereds_candy.jpg ..\..\JOCN-master\task a\images\starburst_verry berry_candy.jpg ..\..\JOCN-master\task a\images\keebler_fudge_stripes.jpg ..\..\JOCN-master\task a\images\poptarts_strawberry_frosted.jpg ..\..\JOCN-master\task a\images\sunchips_harvest cheddar_chips.jpg ..\..\JOCN-master\task a\images\kellogg's_rice krispies_orignal.jpg ..\..\JOCN-master\task a\images\nutrigrain_blueberry_bar.jpg ..\..\JOCN-master\task a\images\famous_amos_chocolate_chip.jpg ..\..\JOCN-master\task a\images\garden_veggie straws_zesty ranch.jpg ..\..\JOCN-master\task a\images\baked_lays_classic.jpg ..\..\JOCN-master\task a\images\nutrigrain_apple cinnamon_bar.jpg,12,1.71935922647,..\..\JOCN-master\task a\images\famous_amos_chocolate_chip.jpg,1.13999839569,4,5,3.33305818081,0,2
2,1.75,2,1.0 1.75 0.5 1.25,1.75,1.64898257097,$0.5,1.71661832061,5,6,3.61067929293,0,1
8,1.0,3,..\..\JOCN-master\task a\images\doritos_cool ranch_chips.jpg ..\..\JOCN-master\task a\images\snickers_almond_bar.jpg ..\..\JOCN-master\task a\images\fritos_original_corn chips.jpg,3,5.12000406161e-06,..\..\JOCN-master\task a\images\snickers_almond_bar.jpg,1.13777932711e-05,n/a,n/a,,1,2
6,0.75,6,..\..\JOCN-master\task a\images\nabisco_chips ahhoy_mini.jpg ..\..\JOCN-master\task a\images\combos_cheddar cheese_pretzel.jpg ..\..\JOCN-master\task a\images\skittles_wild berry_candy.jpg ..\..\JOCN-master\task a\images\pringles_sour cream and onion_potato crisps.jpg ..\..\JOCN-master\task a\images\lays_classic_potato chips.jpg ..\..\JOCN-master\task a\images\nature_valley_sweet_and_salty.jpg,6,2.17955607339,..\..\JOCN-master\task a\images\combos_cheddar cheese_pretzel.jpg,2.90669769765,4,5,3.66664884152,0,2
1,0.5,3,..\..\JOCN-master\task a\images\lays_kc masterpiece_barbecue chips.jpg ..\..\JOCN-master\task a\images\twix_milk chocolate_cookie bars.jpg ..\..\JOCN-master\task a\images\sun chips_garden salsa_chips.jpg,3,1.20911041164,..\..\JOCN-master\task a\images\twix_milk chocolate_cookie bars.jpg,1.50684060249,5,5,2.57353427244,0,1
7,1.5,12,..\..\JOCN-master\task a\images\jacklinks_beef_steak.jpg ..\..\JOCN-master\task a\images\snyders_mini_pretzels.jpg ..\..\JOCN-master\task a\images\m&m's_milk_chocholate.jpg ..\..\JOCN-master\task a\images\skittles_sour_candy.jpg ..\..\JOCN-master\task a\images\nestle_crunch_bar.jpg ..\..\JOCN-master\task a\images\baked_lays_classic.jpg ..\..\JOCN-master\task a\images\pepperidge farms-goldish-cheddar.jpg ..\..\JOCN-master\task a\images\poptarts_brown_sugar.jpg ..\..\JOCN-master\task a\images\nutrigrain_apple cinnamon_bar.jpg ..\..\JOCN-master\task a\images\nutrigrain_blueberry_bar.jpg ..\..\JOCN-master\task a\images\swedish fish_original_candy.jpg ..\..\JOCN-master\task a\images\kettle_bbq.jpg,12,5.68892573938e-06,..\..\JOCN-master\task a\images\m&m's_milk_chocholate.jpg,1.02400081232e-05,n/a,n/a,,1,2
5,0.75,6,..\..\JOCN-master\task a\images\milkyway_orginal_candy.jpg ..\..\JOCN-master\task a\images\starburst_favereds_candy.jpg ..\..\JOCN-master\task a\images\m&m's_peanut_butter.jpg ..\..\JOCN-master\task a\images\3 musketeers_candy bar.jpg ..\..\JOCN-master\task a\images\sun chips_original_chips.jpg ..\..\JOCN-master\task a\images\baked_lays_classic.jpg,6,1.4450968334,..\..\JOCN-master\task a\images\sun chips_original_chips.jpg,2.21819442685,5,5,3.79186352587,0,2
6,0.5,6,..\..\JOCN-master\task a\images\pringles_sour cream and onion_potato crisps.jpg ..\..\JOCN-master\task a\images\welch's_white_grape_raspberry.jpg ..\..\JOCN-master\task a\images\snickers_milk chocolate_candy bar.jpg ..\..\JOCN-master\task a\images\swedish fish_original_candy.jpg ..\..\JOCN-master\task a\images\sun chips_french onion_chips.jpg ..\..\JOCN-master\task a\images\twix_milk chocolate_cookie bars.jpg,6,1.87837045238,..\..\JOCN-master\task a\images\pringles_sour cream and onion_potato crisps.jpg,2.15263568994,5,5,3.28031024913,0,2
8,1.5,2,1.5 0.75,1.5,6.25778920949e-06,$0.75,4.5511405915e-06,n/a,n/a,,1,2
1,1.75,3,1.75 0.5 1.25,1.75,1.93000620656,$0.5,1.49878912035,1,3,n/a,1,1
4,1.5,3,..\..\JOCN-master\task a\images\nabisco_nutter butter_bites.jpg ..\..\JOCN-master\task a\images\skittles_darkside_candy.jpg ..\..\JOCN-master\task a\images\belvita_blueberry.JPG,3,5.68886753172e-06,..\..\JOCN-master\task a\images\nabisco_nutter butter_bites.jpg,9.67108644545e-06,n/a,n/a,,1,1
7,1.25,6,..\..\JOCN-master\task a\images\nabisco_chips ahhoy_mini.jpg ..\..\JOCN-master\task a\images\welch's_tropical_fruits.jpg ..\..\JOCN-master\task a\images\garden_veggie straws_sea salt.jpg ..\..\JOCN-master\task a\images\kitkat_crisp wafers_milk choc.jpg ..\..\JOCN-master\task a\images\teddy_grahams_chocolate.jpg ..\..\JOCN-master\task a\images\jacklinks_beef_steak.jpg,6,5.12000406161e-06,..\..\JOCN-master\task a\images\garden_veggie straws_sea salt.jpg,7.96443782747e-06,n/a,n/a,,1,2
2,1.5,6,..\..\JOCN-master\task a\images\sourpatchkids_original_candy.jpg ..\..\JOCN-master\task a\images\combos_cheddar cheese_pretzel.jpg ..\..\JOCN-master\task a\images\nature valley_oats and honey_crunchy.jpg ..\..\JOCN-master\task a\images\skittles_sour_candy.jpg ..\..\JOCN-master\task a\images\sun chips_french onion_chips.jpg ..\..\JOCN-master\task a\images\starburst_orignal_candy.jpg,6,1.59604463045,..\..\JOCN-master\task a\images\starburst_orignal_candy.jpg,3.41146299412,4,6,3.45565313258,0,1
5,1.0,2,1.5 0.75 1.25 1.0,1.0,1.81504289707,$0.75,1.06570494134,4,4,4.34473746637,0,2
5,1.0,2,1.75 0.5 1.0,1.0,3.89830943337,$0.5,2.39951064193,5,5,2.55136240314,0,2
5,1.75,12,..\..\JOCN-master\task a\images\kettle_original.jpg ..\..\JOCN-master\task a\images\nestle_butterfinger_cups.jpg ..\..\JOCN-master\task a\images\nabisco_nutter butter_bites.jpg ..\..\JOCN-master\task a\images\m&m's_peanut.jpg ..\..\JOCN-master\task a\images\lays_kc masterpiece_barbecue chips.jpg ..\..\JOCN-master\task a\images\milkyway_orginal_candy.jpg ..\..\JOCN-master\task a\images\jacklinks_beef_jerky_original.jpg ..\..\JOCN-master\task a\images\skittles_wild berry_candy.jpg ..\..\JOCN-master\task a\images\nutrigrain_apple cinnamon_bar.jpg ..\..\JOCN-master\task a\images\sun chips_garden salsa_chips.jpg ..\..\JOCN-master\task a\images\hersey_milk_chocolate.jpg ..\..\JOCN-master\task a\images\nabisco_chips ahhoy_mini.jpg,12,1.17330853734,..\..\JOCN-master\task a\images\nabisco_nutter butter_bites.jpg,2.45688875893,5,6,3.52270690911,0,2
8,1.5,2,1.5 0.75 1.25 1.75 0.5 1.0,1.5,5.68886753172e-06,$1.75,4.5511405915e-06,n/a,n/a,,1,2
3,1.0,2,0.5 1.0,1.0,5.68886753172e-06,$1.0,5.68892573938e-06,n/a,n/a,,1,1
2,1.75,2,1.75 0.75 1.25 1.0 1.5 0.5,1.75,1.53954430879,$0.5,1.1676754012,5,2,n/a,1,1
6,0.5,12,..\..\JOCN-master\task a\images\snickers_milk chocolate_candy bar.jpg ..\..\JOCN-master\task a\images\nabisco_teddy graham_honey.jpg ..\..\JOCN-master\task a\images\skittles_sour_candy.jpg ..\..\JOCN-master\task a\images\reeses_peanut butter cups_milk choc.jpg ..\..\JOCN-master\task a\images\nutrigrain_apple cinnamon_bar.jpg ..\..\JOCN-master\task a\images\skittles_wild berry_candy.jpg ..\..\JOCN-master\task a\images\doritos_nacho cheesier_chips.jpg ..\..\JOCN-master\task a\images\hersheys_milk choc_almond.jpg ..\..\JOCN-master\task a\images\nutrigrain_strawberry_bar.jpg ..\..\JOCN-master\task a\images\pringles_sour cream and onion_potato crisps.jpg ..\..\JOCN-master\task a\images\pringles_the original_potato crisps.jpg ..\..\JOCN-master\task a\images\doritos_cool ranch_chips.jpg,12,2.1285017234,..\..\JOCN-master\task a\images\nutrigrain_strawberry_bar.jpg,2.17554939009,4,5,3.70413576416,0,2
5,1.0,6,..\..\JOCN-master\task a\images\kettle_jalepeno.jpg ..\..\JOCN-master\task a\images\sourpatch_watermelon_candy.jpg ..\..\JOCN-master\task a\images\twix_milk chocolate_cookie bars.jpg ..\..\JOCN-master\task a\images\pringles_sour cream and onion_potato crisps.jpg ..\..\JOCN-master\task a\images\cheetos_crunchy_chips.jpg ..\..\JOCN-master\task a\images\starburst_favereds_candy.jpg,6,2.32808211108,..\..\JOCN-master\task a\images\kettle_jalepeno.jpg,1.53745421156,5,6,3.54308108997,0,2
7,1.25,6,1.5 1.0 1.75 1.25 0.5 0.75,1.25,5.68886753172e-06,$1.0,4.5511405915e-06,n/a,n/a,,1,2
8,1.0,2,..\..\JOCN-master\task a\images\pepperidge farms-goldish-cheddar.jpg ..\..\JOCN-master\task a\images\nabisco_chips ahhoy_mini.jpg,2,5.12000406161e-06,..\..\JOCN-master\task a\images\pepperidge farms-goldish-cheddar.jpg,7.39557435736e-06,n/a,n/a,,1,2
5,1.75,12,1.25 1.75,1.75,1.2791417517,$1.75,0.881261544884,3,3,2.90185816126,0,2
7,1.75,12,1.5 1.0 1.25 0.5 1.75 0.75,1.75,5.68892573938e-06,$0.5,4.5511405915e-06,n/a,n/a,,1,2
6,1.0,12,..\..\JOCN-master\task a\images\garden_veggie straws_sea salt.jpg ..\..\JOCN-master\task a\images\baked_lays_sour cream and onion.jpg ..\..\JOCN-master\task a\images\welch's_berry.jpg ..\..\JOCN-master\task a\images\famous_amos_chocolate_chip.jpg ..\..\JOCN-master\task a\images\kettle_jalepeno.jpg ..\..\JOCN-master\task a\images\milkyway_orginal_candy.jpg ..\..\JOCN-master\task a\images\sunchips_harvest cheddar_chips.jpg ..\..\JOCN-master\task a\images\cheetos_crunchy_chips.jpg ..\..\JOCN-master\task a\images\belvita_blueberry.JPG ..\..\JOCN-master\task a\images\welch's_mixed fruit_fruit snacks.jpg ..\..\JOCN-master\task a\images\jacklinks_beef_steak.jpg ..\..\JOCN-master\task a\images\baked_cheetos_crunchy.jpg,12,1.32259574824,..\..\JOCN-master\task a\images\welch's_mixed fruit_fruit snacks.jpg,0.885710254719,5,5,2.85527698341,0,2
2,1.75,2,1.75 1.0 1.5,1.75,1.25875334861,$1.5,1.43437100534,5,4,3.27082573628,0,1
5,1.5,12,..\..\JOCN-master\task a\images\welch's_mixed fruit_fruit snacks.jpg ..\..\JOCN-master\task a\images\nabisco_oreo_mini.jpg ..\..\JOCN-master\task a\images\hersey_milk_chocolate.jpg ..\..\JOCN-master\task a\images\m&m's_peanut_butter.jpg ..\..\JOCN-master\task a\images\m&m's_peanut.jpg ..\..\JOCN-master\task a\images\kellogg's_rice krispies_orignal.jpg ..\..\JOCN-master\task a\images\nabisco_nutter butter_bites.jpg ..\..\JOCN-master\task a\images\combos_cheddar cheese_pretzel.jpg ..\..\JOCN-master\task a\images\mini_fudge_stripes.jpg ..\..\JOCN-master\task a\images\pringles_sour cream and onion_potato crisps.jpg ..\..\JOCN-master\task a\images\starburst_favereds_candy.jpg ..\..\JOCN-master\task a\images\sourpatchkids_original_candy.jpg,12,1.51079779246,..\..\JOCN-master\task a\images\nabisco_oreo_mini.jpg,1.65524091583,5,5,3.33013011049,0,2
6,1.25,6,1.75 0.75 1.5 1.25,1.25,2.38134318043,$1.5,1.44952563214,5,4,3.37223413412,0,2
8,0.5,3,..\..\JOCN-master\task a\images\nestle_crunch_bar.jpg ..\..\JOCN-master\task a\images\kettle_jalepeno.jpg ..\..\JOCN-master\task a\images\skittles_original_candy.jpg,3,5.12000406161e-06,..\..\JOCN-master\task a\images\kettle_jalepeno.jpg,2.9013317544e-05,n/a,n/a,,1,2
6,1.75,6,1.75 1.0,1.75,1.41213030054,$1.0,1.08381210058,4,4,2.67663909646,0,2
2,1.5,2,1.75 0.5 1.5,1.5,2.21528456098,$0.5,2.4827293916,5,5,2.44887539232,0,1
5,0.5,6,..\..\JOCN-master\task a\images\jacklinks_beef_steak.jpg ..\..\JOCN-master\task a\images\sun chips_original_chips.jpg ..\..\JOCN-master\task a\images\poptarts_brown_sugar.jpg ..\..\JOCN-master\task a\images\swedish fish_original_candy.jpg ..\..\JOCN-master\task a\images\nabisco_teddy graham_honey.jpg ..\..\JOCN-master\task a\images\garden_veggie straws_cheddar.jpg,6,1.80376354029,..\..\JOCN-master\task a\images\swedish fish_original_candy.jpg,1.78236422193,4,4,2.67807895382,0,2
5,1.75,2,1.5 1.75 0.5 1.25 1.0 0.75,1.75,1.2919246814,$1.5,0.815153830394,4,3,2.29435099184,0,2
5,1.75,2,1.75 0.5 1.0,1.75,0.964458676754,$1.0,1.14993972628,4,4,3.16494814865,0,2
2,0.5,3,..\..\JOCN-master\task a\images\nutrigrain_strawberry_bar.jpg ..\..\JOCN-master\task a\images\sourpatchkids_original_candy.jpg ..\..\JOCN-master\task a\images\pringles_cheddar_potato crisps.jpg,3,1.66344713571,..\..\JOCN-master\task a\images\nutrigrain_strawberry_bar.jpg,1.85716057394,5,5,2.33987289888,0,1
4,1.25,6,..\..\JOCN-master\task a\images\kettle_jalepeno.jpg ..\..\JOCN-master\task a\images\skittles_darkside_candy.jpg ..\..\JOCN-master\task a\images\jacklinks_beef_steak.jpg ..\..\JOCN-master\task a\images\keebler_chips delux_cookies_crackers.jpg ..\..\JOCN-master\task a\images\belvita_golden_oats.JPG ..\..\JOCN-master\task a\images\baked_lays_sour cream and onion.jpg,6,5.68892573938e-06,..\..\JOCN-master\task a\images\kettle_jalepeno.jpg,1.4222227037e-05,n/a,n/a,,1,1
4,0.5,2,..\..\JOCN-master\task a\images\hersheys_milk choc_almond.jpg ..\..\JOCN-master\task a\images\pringles_cheddar_potato crisps.jpg,2,6.82665267959e-06,..\..\JOCN-master\task a\images\hersheys_milk choc_almond.jpg,9.10222297534e-06,n/a,n/a,,1,1
2,1.75,6,1.75 0.5,1.75,1.84391741332,$1.75,2.6996113921,3,3,2.84749458556,0,1
5,1.0,6,..\..\JOCN-master\task a\images\sunchips_harvest cheddar_chips.jpg ..\..\JOCN-master\task a\images\snickers_almond_bar.jpg ..\..\JOCN-master\task a\images\pringles_the original_potato crisps.jpg ..\..\JOCN-master\task a\images\famous_amos_chocolate_chip.jpg ..\..\JOCN-master\task a\images\fritos_original_corn chips.jpg ..\..\JOCN-master\task a\images\snyders_mini_pretzels.jpg,6,1.27938808053,..\..\JOCN-master\task a\images\snyders_mini_pretzels.jpg,1.65217119228,4,4,3.01495039574,0,2
7,1.75,6,1.75 1.5,1.75,5.68892573938e-06,$1.75,5.12000406161e-06,n/a,n/a,,1,2
3,1.0,2,1.0 1.25 0.5,1.0,5.12000406161e-06,$1.25,4.55108238384e-06,n/a,n/a,,1,1
8,0.5,2,1.5 1.25 1.75 0.5,0.5,5.12000406161e-06,$1.5,4.5511405915e-06,n/a,n/a,,1,2
5,1.0,3,..\..\JOCN-master\task a\images\twix_milk chocolate_cookie bars.jpg ..\..\JOCN-master\task a\images\welch's_tropical_fruits.jpg ..\..\JOCN-master\task a\images\nabisco_mini_ritz.jpg,3,1.61053820857,..\..\JOCN-master\task a\images\nabisco_mini_ritz.jpg,1.38588973915,5,6,2.55970003631,0,2
2,0.75,3,..\..\JOCN-master\task a\images\baked_lays_sour cream and onion.jpg ..\..\JOCN-master\task a\images\famous_amos_chocolate_chip.jpg ..\..\JOCN-master\task a\images\doritos_nacho cheesier_chips.jpg,3,1.60440558806,..\..\JOCN-master\task a\images\famous_amos_chocolate_chip.jpg,1.8670962156,4,5,2.69186255877,0,1
1,0.5,2,..\..\JOCN-master\task a\images\starburst_favereds_candy.jpg ..\..\JOCN-master\task a\images\sun chips_garden salsa_chips.jpg,2,1.80943706754,..\..\JOCN-master\task a\images\sun chips_garden salsa_chips.jpg,1.09083901421,4,5,2.95986888249,0,1
7,1.0,12,..\..\JOCN-master\task a\images\3 musketeers_candy bar.jpg ..\..\JOCN-master\task a\images\skittles_darkside_candy.jpg ..\..\JOCN-master\task a\images\baked_lays_barbeque.jpg ..\..\JOCN-master\task a\images\nabisco_nutter butter_bites.jpg ..\..\JOCN-master\task a\images\austin_lemon ohs_lemon cookies.jpg ..\..\JOCN-master\task a\images\nabisco_chips ahhoy_mini.jpg ..\..\JOCN-master\task a\images\nutrigrain_strawberry_bar.jpg ..\..\JOCN-master\task a\images\starburst_verry berry_candy.jpg ..\..\JOCN-master\task a\images\sunchips_harvest cheddar_chips.jpg ..\..\JOCN-master\task a\images\m&m's_peanut.jpg ..\..\JOCN-master\task a\images\poptarts_brown_sugar.jpg ..\..\JOCN-master\task a\images\sun chips_garden salsa_chips.jpg,12,5.68886753172e-06,..\..\JOCN-master\task a\images\m&m's_peanut.jpg,1.19467149489e-05,n/a,n/a,,1,2
6,0.5,6,..\..\JOCN-master\task a\images\nature_valley_sweet_and_salty.jpg ..\..\JOCN-master\task a\images\starburst_orignal_candy.jpg ..\..\JOCN-master\task a\images\nabisco_chips ahhoy_mini.jpg ..\..\JOCN-master\task a\images\nutrigrain_strawberry_bar.jpg ..\..\JOCN-master\task a\images\starburst_verry berry_candy.jpg ..\..\JOCN-master\task a\images\fritos_original_corn chips.jpg,6,0.959063904942,..\..\JOCN-master\task a\images\nature_valley_sweet_and_salty.jpg,2.18258825032,4,5,3.45803962083,0,2
5,0.75,2,0.5 1.0 0.75 1.25,0.75,1.90339245414,$1.0,1.08336722961,4,4,3.24900145805,0,2
7,1.25,3,..\..\JOCN-master\task a\images\baked_lays_barbeque.jpg ..\..\JOCN-master\task a\images\snyders_mini_pretzels.jpg ..\..\JOCN-master\task a\images\nature_valley_sweet_and_salty.jpg,3,7.3955161497e-06,..\..\JOCN-master\task a\images\baked_lays_barbeque.jpg,8.53335950524e-06,n/a,n/a,,1,2
6,1.0,2,..\..\JOCN-master\task a\images\milkyway_orginal_candy.jpg ..\..\JOCN-master\task a\images\m&m's_peanut.jpg,2,1.38046140288,..\..\JOCN-master\task a\images\milkyway_orginal_candy.jpg,1.01177713444,4,5,2.40700916422,0,2
5,0.5,12,..\..\JOCN-master\task a\images\cheetos_crunchy_chips.jpg ..\..\JOCN-master\task a\images\skittles_original_candy.jpg ..\..\JOCN-master\task a\images\kitkat_crisp wafers_milk choc.jpg ..\..\JOCN-master\task a\images\pepperidge farms-goldish-cheddar.jpg ..\..\JOCN-master\task a\images\baked_lays_sour cream and onion.jpg ..\..\JOCN-master\task a\images\kettle_bbq.jpg ..\..\JOCN-master\task a\images\nabisco_mini_ritz.jpg ..\..\JOCN-master\task a\images\mini_fudge_stripes.jpg ..\..\JOCN-master\task a\images\nestle_butterfinger_cups.jpg ..\..\JOCN-master\task a\images\doritos_cool ranch_chips.jpg ..\..\JOCN-master\task a\images\pringles_cheddar_potato crisps.jpg ..\..\JOCN-master\task a\images\welch's_tropical_fruits.jpg,12,0.956416296831,..\..\JOCN-master\task a\images\nabisco_mini_ritz.jpg,2.22832519724,5,6,2.57937619073,0,2
1,1.5,3,1.5 1.75 1.0 0.75 0.5 1.25,1.5,2.03627860302,$0.5,1.06548933248,4,5,3.74833614269,0,1
1,0.75,2,..\..\JOCN-master\task a\images\sourpatchkids_original_candy.jpg ..\..\JOCN-master\task a\images\skittles_darkside_candy.jpg,2,1.85902652901,..\..\JOCN-master\task a\images\skittles_darkside_candy.jpg,1.21643485402,4,5,2.68835649756,0,1
1,0.75,3,..\..\JOCN-master\task a\images\lays_classic_potato chips.jpg ..\..\JOCN-master\task a\images\twix_milk chocolate_cookie bars.jpg ..\..\JOCN-master\task a\images\hersey_milk_chocolate.jpg,3,2.00720838906,..\..\JOCN-master\task a\images\lays_classic_potato chips.jpg,2.09812306543,4,5,2.56533829251,0,1
8,0.75,2,1.75 1.0 0.75 1.5,0.75,5.68886753172e-06,$0.75,4.55108238384e-06,n/a,n/a,,1,2
1,1.75,12,..\..\JOCN-master\task a\images\baked_lays_sour cream and onion.jpg ..\..\JOCN-master\task a\images\baked_cheetos_crunchy.jpg ..\..\JOCN-master\task a\images\skittles_original_candy.jpg ..\..\JOCN-master\task a\images\sourpatchkids_original_candy.jpg ..\..\JOCN-master\task a\images\nutrigrain_blueberry_bar.jpg ..\..\JOCN-master\task a\images\belvita_golden_oats.JPG ..\..\JOCN-master\task a\images\nabisco_mini_ritz.jpg ..\..\JOCN-master\task a\images\austin_lemon ohs_lemon cookies.jpg ..\..\JOCN-master\task a\images\twix_milk chocolate_cookie bars.jpg ..\..\JOCN-master\task a\images\skittles_wild berry_candy.jpg ..\..\JOCN-master\task a\images\sunchips_harvest cheddar_chips.jpg ..\..\JOCN-master\task a\images\sun chips_garden salsa_chips.jpg,12,2.27060671413,..\..\JOCN-master\task a\images\nutrigrain_blueberry_bar.jpg,0.967199013801,5,6,2.22320519871,0,1
4,0.5,2,..\..\JOCN-master\task a\images\poptarts_brown_sugar.jpg ..\..\JOCN-master\task a\images\nestle_crunch_bar.jpg,2,5.12000406161e-06,..\..\JOCN-master\task a\images\poptarts_brown_sugar.jpg,7.39557435736e-06,n/a,n/a,,1,1
1,1.0,6,..\..\JOCN-master\task a\images\belvita_golden_oats.JPG ..\..\JOCN-master\task a\images\garden_veggie straws_zesty ranch.jpg ..\..\JOCN-master\task a\images\nabisco_nutter butter_bites.jpg ..\..\JOCN-master\task a\images\twix_milk chocolate_cookie bars.jpg ..\..\JOCN-master\task a\images\lays_classic_potato chips.jpg ..\..\JOCN-master\task a\images\kellogg's_rice krispies_orignal.jpg,6,1.39964376186,..\..\JOCN-master\task a\images\nabisco_nutter butter_bites.jpg,1.63156319811,3,4,2.70166052936,0,1
3,1.75,2,1.75 1.0,1.75,5.68886753172e-06,$1.0,4.5511405915e-06,n/a,n/a,,1,1
