Trial Type, Money Option, Item Option, Trial Options, Choice 1, Choice 1 RT, Choice 2, Choice 2 RT, Decision Rating , Selected Option Rating, PostChoiceRT, Computer Response, Choosing For
8,1.25,3,..\..\JOCN-master\task a\images\snyders_mini_pretzels.jpg ..\..\JOCN-master\task a\images\m&m's_milk_chocholate.jpg ..\..\JOCN-master\task a\images\cheez-it_white_cheddar.JPG,3,7.39554525353e-06,..\..\JOCN-master\task a\images\m&m's_milk_chocholate.jpg,1.13777350634e-05,n/a,n/a,,1,2
3,0.75,12,0.75 1.0 1.75,0.75,5.12000406161e-06,$1.0,4.55111148767e-06,n/a,n/a,,1,1
6,1.75,6,1.75 0.5,1.75,1.39378432883,$1.75,1.71626763907,4,7,n/a,1,2
6,1.0,6,..\..\JOCN-master\task a\images\poptarts_brown_sugar.jpg ..\..\JOCN-master\task a\images\swedish fish_original_candy.jpg ..\..\JOCN-master\task a\images\austin_cheddar cheese_cheese cracker.jpg ..\..\JOCN-master\task a\images\quaker_chewy_peanut butter choc chip.jpg ..\..\JOCN-master\task a\images\sun chips_original_chips.jpg ..\..\JOCN-master\task a\images\kettle_salt_pepper.jpg,6,4.01208033835,..\..\JOCN-master\task a\images\poptarts_brown_sugar.jpg,4.29752505242,1,4,n/a,1,2
2,0.5,6,0.5 1.75 1.25 1.0 1.5 0.75,0.5,2.82874989687,$1.75,3.51532044043,7,4,n/a,1,1
5,0.5,2,..\..\JOCN-master\task a\images\skittles_original_candy.jpg ..\..\JOCN-master\task a\images\cheetos_crunchy_chips.jpg,2,3.95087822099,..\..\JOCN-master\task a\images\skittles_original_candy.jpg,1.91378330483,3,5,n/a,1,2
4,1.25,12,..\..\JOCN-master\task a\images\doritos_nacho cheesier_chips.jpg ..\..\JOCN-master\task a\images\doritos_cool ranch_chips.jpg ..\..\JOCN-master\task a\images\m&m's_milk_chocholate.jpg ..\..\JOCN-master\task a\images\planters_salted_cashews.jpg ..\..\JOCN-master\task a\images\sourpatchkids_original_candy.jpg ..\..\JOCN-master\task a\images\nabisco_oreo_mini.jpg ..\..\JOCN-master\task a\images\cheez itz_original.jpg ..\..\JOCN-master\task a\images\grandmas_chocolate brownie_cookie.jpg ..\..\JOCN-master\task a\images\m&m's_peanut_butter.jpg ..\..\JOCN-master\task a\images\quaker_chewy_peanut butter choc chip.jpg ..\..\JOCN-master\task a\images\sun chips_original_chips.jpg ..\..\JOCN-master\task a\images\baked_cheetos_crunchy.jpg,12,6.25776010565e-06,..\..\JOCN-master\task a\images\nabisco_oreo_mini.jpg,8.53333040141e-06,n/a,n/a,,1,1
6,0.5,6,..\..\JOCN-master\task a\images\keebler_vanilla_sugar_wafers.jpg ..\..\JOCN-master\task a\images\milkyway_orginal_candy.jpg ..\..\JOCN-master\task a\images\hersey_milk_chocolate.jpg ..\..\JOCN-master\task a\images\cheetos_crunchy_chips.jpg ..\..\JOCN-master\task a\images\nabisco_teddy graham_honey.jpg ..\..\JOCN-master\task a\images\kind bar_peanut butter_bar.jpg,6,3.73739898679,..\..\JOCN-master\task a\images\milkyway_orginal_candy.jpg,3.32685919735,1,6,n/a,1,2
3,0.5,6,..\..\JOCN-master\task a\images\keebler_vanilla_sugar_wafers.jpg ..\..\JOCN-master\task a\images\doritos_cool ranch_chips.jpg ..\..\JOCN-master\task a\images\sun chips_garden salsa_chips.jpg ..\..\JOCN-master\task a\images\kettle_salt_pepper.jpg ..\..\JOCN-master\task a\images\skittles_sour_candy.jpg ..\..\JOCN-master\task a\images\poptarts_brown_sugar.jpg,6,5.68886753172e-06,..\..\JOCN-master\task a\images\doritos_cool ranch_chips.jpg,7.96443782747e-06,n/a,n/a,,1,1
1,1.5,2,0.5 1.25 0.75 1.0 1.75 1.5,1.5,2.61354067407,$1.75,2.982895811,5,1,n/a,1,1
6,1.5,3,..\..\JOCN-master\task a\images\pepperidge farms-goldish-cheddar.jpg ..\..\JOCN-master\task a\images\sun chips_original_chips.jpg ..\..\JOCN-master\task a\images\snickers_milk chocolate_candy bar.jpg,3,3.2500587377,..\..\JOCN-master\task a\images\sun chips_original_chips.jpg,2.0477479143,6,6,n/a,1,2
7,1.5,6,..\..\JOCN-master\task a\images\sourpatch_watermelon_candy.jpg ..\..\JOCN-master\task a\images\sourpatchkids_original_candy.jpg ..\..\JOCN-master\task a\images\baked_lays_classic.jpg ..\..\JOCN-master\task a\images\nabisco_nutter butter_cookies and crackers.jpg ..\..\JOCN-master\task a\images\barnum's_animal_crackers.jpg ..\..\JOCN-master\task a\images\garden_veggie straws_zesty ranch.jpg,6,5.68889663555e-06,..\..\JOCN-master\task a\images\sourpatchkids_original_candy.jpg,7.96443782747e-06,n/a,n/a,,1,2
1,1.25,2,1.25 1.0 1.5,1.25,2.89554418411,$1.5,4.03171607933,4,2,n/a,1,1
1,0.75,2,0.75 1.25 1.5 1.75 1.0 0.5,0.75,2.55217244136,$1.75,3.316649363,7,6,n/a,1,1
4,0.5,6,..\..\JOCN-master\task a\images\austin_cheddar cheese_cheese cracker.jpg ..\..\JOCN-master\task a\images\garden_veggie straws_zesty ranch.jpg ..\..\JOCN-master\task a\images\cheez-it_white_cheddar.JPG ..\..\JOCN-master\task a\images\nestle_babyruth_bar.jpg ..\..\JOCN-master\task a\images\cliff_chocolate chip_bar.jpg ..\..\JOCN-master\task a\images\skittles_sour_candy.jpg,6,5.68889663555e-06,..\..\JOCN-master\task a\images\skittles_sour_candy.jpg,9.67111554928e-06,n/a,n/a,,1,1
7,1.25,6,..\..\JOCN-master\task a\images\austin_peanut butter_cheese cracker.jpg ..\..\JOCN-master\task a\images\3 musketeers_candy bar.jpg ..\..\JOCN-master\task a\images\hersey_milk_chocolate.jpg ..\..\JOCN-master\task a\images\poptarts_strawberry_frosted.jpg ..\..\JOCN-master\task a\images\kettle_salt_vinegar.jpg ..\..\JOCN-master\task a\images\hersheys_milk choc_almond.jpg,6,5.68886753172e-06,..\..\JOCN-master\task a\images\3 musketeers_candy bar.jpg,7.39554525353e-06,n/a,n/a,,1,2
6,1.75,6,..\..\JOCN-master\task a\images\nuture valley_crunchy_bar.jpg ..\..\JOCN-master\task a\images\quaker_chewy_chocolate chip.jpg ..\..\JOCN-master\task a\images\emerald_natural_almonds.jpg ..\..\JOCN-master\task a\images\poptarts_brown_sugar.jpg ..\..\JOCN-master\task a\images\kettle_salt_vinegar.jpg ..\..\JOCN-master\task a\images\pringles_cheddar_potato crisps.jpg,6,1.72157764042,..\..\JOCN-master\task a\images\kettle_salt_vinegar.jpg,2.50502185954,3,6,3.24426575037,0,2
7,1.5,2,..\..\JOCN-master\task a\images\garden_veggie straws_sea salt.jpg ..\..\JOCN-master\task a\images\cheez-it_white_cheddar.JPG,2,5.68889663555e-06,..\..\JOCN-master\task a\images\cheez-it_white_cheddar.JPG,7.39554525353e-06,n/a,n/a,,1,2
1,1.0,3,..\..\JOCN-master\task a\images\nabisco_oreo_mini.jpg ..\..\JOCN-master\task a\images\cheez itz_original.jpg ..\..\JOCN-master\task a\images\pirates booty_aged white cheddar_ corn puffs.jpg,3,2.0233227046,..\..\JOCN-master\task a\images\cheez itz_original.jpg,2.3797117444,5,5,3.64880490836,0,1
5,1.5,6,..\..\JOCN-master\task a\images\skittles_wild berry_candy.jpg ..\..\JOCN-master\task a\images\cliff_chocolate chip_bar.jpg ..\..\JOCN-master\task a\images\famous_amos_chocolate_chip.jpg ..\..\JOCN-master\task a\images\lays_classic_potato chips.jpg ..\..\JOCN-master\task a\images\fritos_original_corn chips.jpg ..\..\JOCN-master\task a\images\pringles_the original_potato crisps.jpg,6,1.97698278827,..\..\JOCN-master\task a\images\pringles_the original_potato crisps.jpg,2.65839294807,3,4,3.59502564263,0,2
8,1.25,2,..\..\JOCN-master\task a\images\welch's_mixed fruit_fruit snacks.jpg ..\..\JOCN-master\task a\images\cheetos_crunchy_chips.jpg,2,5.68886753172e-06,..\..\JOCN-master\task a\images\welch's_mixed fruit_fruit snacks.jpg,7.39554525353e-06,n/a,n/a,,1,2
7,1.25,3,0.75 1.0 1.25 1.75,1.25,5.11997495778e-06,$0.75,4.55108238384e-06,n/a,n/a,,1,2
1,0.5,6,..\..\JOCN-master\task a\images\welch's_mixed fruit_fruit snacks.jpg ..\..\JOCN-master\task a\images\nestle_babyruth_bar.jpg ..\..\JOCN-master\task a\images\fiber one_oats and choc_chewy bar.jpg ..\..\JOCN-master\task a\images\reeses_peanut butter cups_milk choc.jpg ..\..\JOCN-master\task a\images\kettle_salt_vinegar.jpg ..\..\JOCN-master\task a\images\poptarts_strawberry_frosted.jpg,6,1.55776176674,..\..\JOCN-master\task a\images\reeses_peanut butter cups_milk choc.jpg,1.85143772239,4,4,3.44897841924,0,1
1,1.25,3,0.5 1.0 1.25,1.25,1.99762716782,$1.25,2.0334938546,3,3,4.12157024487,0,1
6,1.25,2,..\..\JOCN-master\task a\images\nabisco_nutter butter_cookies and crackers.jpg ..\..\JOCN-master\task a\images\baked_cheetos_crunchy.jpg,2,1.5794022693,..\..\JOCN-master\task a\images\baked_cheetos_crunchy.jpg,1.70033479063,4,5,4.40841157915,0,2
6,0.75,3,..\..\JOCN-master\task a\images\garden_veggie straws_zesty ranch.jpg ..\..\JOCN-master\task a\images\nuture valley_crunchy_bar.jpg ..\..\JOCN-master\task a\images\sunchips_harvest cheddar_chips.jpg,3,1.40314765775,..\..\JOCN-master\task a\images\sunchips_harvest cheddar_chips.jpg,1.78872236269,4,5,3.21475411236,0,2
3,0.75,2,0.75 1.5 1.0,0.75,5.68889663555e-06,$0.75,4.55111148767e-06,n/a,n/a,,1,1
6,1.75,12,..\..\JOCN-master\task a\images\welch's_mixed fruit_fruit snacks.jpg ..\..\JOCN-master\task a\images\nabisco_chips ahhoy_mini.jpg ..\..\JOCN-master\task a\images\pringles_cheddar_potato crisps.jpg ..\..\JOCN-master\task a\images\quaker_chewy_peanut butter choc chip.jpg ..\..\JOCN-master\task a\images\snyders_mini_pretzels.jpg ..\..\JOCN-master\task a\images\milkyway_orginal_candy.jpg ..\..\JOCN-master\task a\images\emerald_natural_almonds.jpg ..\..\JOCN-master\task a\images\garden_veggie straws_sea salt.jpg ..\..\JOCN-master\task a\images\fritos_original_corn chips.jpg ..\..\JOCN-master\task a\images\twix_milk chocolate_cookie bars.jpg ..\..\JOCN-master\task a\images\snickers_milk chocolate_candy bar.jpg ..\..\JOCN-master\task a\images\cheez itz_original.jpg,12,1.58344023686,..\..\JOCN-master\task a\images\snickers_milk chocolate_candy bar.jpg,2.4517710908,3,7,4.12833546192,0,2
1,1.25,12,..\..\JOCN-master\task a\images\snickers_milk chocolate_candy bar.jpg ..\..\JOCN-master\task a\images\nuture valley_crunchy_bar.jpg ..\..\JOCN-master\task a\images\reeses_peanut butter cups_milk choc.jpg ..\..\JOCN-master\task a\images\3 musketeers_candy bar.jpg ..\..\JOCN-master\task a\images\cheez itz_original.jpg ..\..\JOCN-master\task a\images\kettle_salt_vinegar.jpg ..\..\JOCN-master\task a\images\kettle_original.jpg ..\..\JOCN-master\task a\images\welch's_mixed fruit_fruit snacks.jpg ..\..\JOCN-master\task a\images\barnum's_animal_crackers.jpg ..\..\JOCN-master\task a\images\m&m's_peanut_butter.jpg ..\..\JOCN-master\task a\images\quaker_chewy_peanut butter choc chip.jpg ..\..\JOCN-master\task a\images\poptarts_strawberry_frosted.jpg,12,2.10724734969,..\..\JOCN-master\task a\images\kettle_original.jpg,2.2182448096,2,4,3.26739161971,0,1
6,1.75,2,0.5 1.75,1.75,1.30094691421,$1.75,1.28436325779,4,4,3.24169608293,0,2
5,1.5,12,1.0 0.5 1.5,1.5,1.64047980023,$1.5,3.08203821222,2,3,3.81716335335,0,2
7,0.5,2,0.5 1.0,0.5,5.68886753172e-06,$1.0,4.55111148767e-06,n/a,n/a,,1,2
7,1.75,2,1.25 1.75,1.75,5.68889663555e-06,$1.75,4.55111148767e-06,n/a,n/a,,1,2
5,1.75,2,..\..\JOCN-master\task a\images\3 musketeers_candy bar.jpg ..\..\JOCN-master\task a\images\nabisco_nutter butter_bites.jpg,2,1.29237263306,..\..\JOCN-master\task a\images\3 musketeers_candy bar.jpg,1.78569929145,5,6,4.05380657237,0,2
6,0.5,3,..\..\JOCN-master\task a\images\sourpatch_watermelon_candy.jpg ..\..\JOCN-master\task a\images\twix_milk chocolate_cookie bars.jpg ..\..\JOCN-master\task a\images\pringles_cheddar_potato crisps.jpg,3,1.29397803525,..\..\JOCN-master\task a\images\sourpatch_watermelon_candy.jpg,2.32658954439,6,4,n/a,1,2
3,1.0,2,..\..\JOCN-master\task a\images\keebler_vanilla_sugar_wafers.jpg ..\..\JOCN-master\task a\images\keebler_chips delux_cookies_crackers.jpg,2,5.68886753172e-06,..\..\JOCN-master\task a\images\keebler_vanilla_sugar_wafers.jpg,7.96443782747e-06,n/a,n/a,,1,1
2,1.75,12,1.75 0.75 1.0 0.5,1.75,3.48099145814,$1.75,0.683731792029,2,3,3.59334059616,0,1
3,0.5,2,..\..\JOCN-master\task a\images\cheez itz_original.jpg ..\..\JOCN-master\task a\images\snickers_milk chocolate_candy bar.jpg,2,5.68886753172e-06,..\..\JOCN-master\task a\images\cheez itz_original.jpg,8.53333040141e-06,n/a,n/a,,1,1
7,0.5,12,1.0 0.5,0.5,5.12000406161e-06,$1.0,5.12000406161e-06,n/a,n/a,,1,2
1,1.75,2,..\..\JOCN-master\task a\images\kitkat_crisp wafers_milk choc.jpg ..\..\JOCN-master\task a\images\welch's_mixed fruit_fruit snacks.jpg,2,1.53564965597,..\..\JOCN-master\task a\images\kitkat_crisp wafers_milk choc.jpg,1.5089119162,5,5,4.29933013429,0,1
8,0.5,2,..\..\JOCN-master\task a\images\pringles_sour cream and onion_potato crisps.jpg ..\..\JOCN-master\task a\images\wheat_thins.jpg,2,5.12000406161e-06,..\..\JOCN-master\task a\images\pringles_sour cream and onion_potato crisps.jpg,7.96443782747e-06,n/a,n/a,,1,2
2,1.5,2,..\..\JOCN-master\task a\images\garden_veggie straws_zesty ranch.jpg ..\..\JOCN-master\task a\images\fritos_original_corn chips.jpg,2,1.4570537855,..\..\JOCN-master\task a\images\garden_veggie straws_zesty ranch.jpg,1.2015411178,6,6,3.24415538608,0,1
4,1.25,3,..\..\JOCN-master\task a\images\nestle_crunch_bar.jpg ..\..\JOCN-master\task a\images\m&m's_peanut.jpg ..\..\JOCN-master\task a\images\nabisco_teddy graham_honey.jpg,3,5.68886753172e-06,..\..\JOCN-master\task a\images\m&m's_peanut.jpg,8.53330129758e-06,n/a,n/a,,1,1
2,1.5,2,..\..\JOCN-master\task a\images\hersheys_milk choc_almond.jpg ..\..\JOCN-master\task a\images\cheez-it_white_cheddar.JPG,2,1.26489818326,..\..\JOCN-master\task a\images\cheez-it_white_cheddar.JPG,2.82838068853,4,4,3.37428170769,0,1
7,1.0,3,..\..\JOCN-master\task a\images\quaker_chewy_peanut butter choc chip.jpg ..\..\JOCN-master\task a\images\skittles_original_candy.jpg ..\..\JOCN-master\task a\images\poptarts_strawberry_frosted.jpg,3,5.12000406161e-06,..\..\JOCN-master\task a\images\poptarts_strawberry_frosted.jpg,7.96443782747e-06,n/a,n/a,,1,2
2,0.5,2,..\..\JOCN-master\task a\images\kettle_salt_pepper.jpg ..\..\JOCN-master\task a\images\starburst_orignal_candy.jpg,2,1.02964475783,..\..\JOCN-master\task a\images\kettle_salt_pepper.jpg,1.92006326036,4,5,3.09623026312,0,1
5,1.25,3,..\..\JOCN-master\task a\images\nabisco_nutter butter_cookies and crackers.jpg ..\..\JOCN-master\task a\images\nestle_crunch_bar.jpg ..\..\JOCN-master\task a\images\pirates booty_aged white cheddar_ corn puffs.jpg,3,1.30540756564,..\..\JOCN-master\task a\images\nestle_crunch_bar.jpg,2.61287735056,5,5,3.73760151098,0,2
5,1.5,12,1.75 1.5,1.5,2.52060199738,$1.75,0.849416463054,3,3,3.51423613974,0,2
4,1.25,3,..\..\JOCN-master\task a\images\skinny_pop_popcorn.jpg ..\..\JOCN-master\task a\images\garden_veggie straws_zesty ranch.jpg ..\..\JOCN-master\task a\images\cheez-it_white_cheddar.JPG,3,5.12000406161e-06,..\..\JOCN-master\task a\images\skinny_pop_popcorn.jpg,1.13777641673e-05,n/a,n/a,,1,1
2,0.5,2,..\..\JOCN-master\task a\images\welch's_mixed fruit_fruit snacks.jpg ..\..\JOCN-master\task a\images\sun chips_garden salsa_chips.jpg,2,1.28954753486,..\..\JOCN-master\task a\images\sun chips_garden salsa_chips.jpg,1.16720985997,6,6,3.62771679612,0,1
3,1.75,2,..\..\JOCN-master\task a\images\nabisco_nutter butter_bites.jpg ..\..\JOCN-master\task a\images\nabisco_oreo_mini.jpg,2,5.11997495778e-06,..\..\JOCN-master\task a\images\nabisco_oreo_mini.jpg,6.82668178342e-06,n/a,n/a,,1,1
3,1.25,2,..\..\JOCN-master\task a\images\nature_valley_sweet_and_salty.jpg ..\..\JOCN-master\task a\images\famous_amos_chocolate_chip.jpg,2,5.11997495778e-06,..\..\JOCN-master\task a\images\famous_amos_chocolate_chip.jpg,8.53333040141e-06,n/a,n/a,,1,1
2,0.5,3,..\..\JOCN-master\task a\images\m&m's_peanut.jpg ..\..\JOCN-master\task a\images\kettle_original.jpg ..\..\JOCN-master\task a\images\quaker_chewy_peanut butter choc chip.jpg,3,1.75363050151,..\..\JOCN-master\task a\images\quaker_chewy_peanut butter choc chip.jpg,2.45440674928,6,7,3.12311762045,0,1
1,0.5,2,..\..\JOCN-master\task a\images\pringles_sour cream and onion_potato crisps.jpg ..\..\JOCN-master\task a\images\cliff_chocolate chip_bar.jpg,2,1.34946510298,..\..\JOCN-master\task a\images\cliff_chocolate chip_bar.jpg,2.32586079877,2,2,2.57284583416,0,1
2,1.25,12,0.5 1.5 1.75 0.75 1.0 1.25,1.25,1.86203326288,$1.75,1.6504307905,3,2,3.759686884,0,1
2,1.25,12,..\..\JOCN-master\task a\images\starburst_orignal_candy.jpg ..\..\JOCN-master\task a\images\cheez-it_white_cheddar.JPG ..\..\JOCN-master\task a\images\keebler_chips delux_cookies_crackers.jpg ..\..\JOCN-master\task a\images\keebler_vanilla_sugar_wafers.jpg ..\..\JOCN-master\task a\images\nabisco_teddy graham_honey.jpg ..\..\JOCN-master\task a\images\grandmas_chocolate brownie_cookie.jpg ..\..\JOCN-master\task a\images\planters_salted_peanuts.jpg ..\..\JOCN-master\task a\images\skittles_wild berry_candy.jpg ..\..\JOCN-master\task a\images\baked_cheetos_crunchy.jpg ..\..\JOCN-master\task a\images\snyders_mini_pretzels.jpg ..\..\JOCN-master\task a\images\baked_lays_classic.jpg ..\..\JOCN-master\task a\images\pirates booty_aged white cheddar_ corn puffs.jpg,12,1.22603459406,..\..\JOCN-master\task a\images\baked_lays_classic.jpg,n/a,3,3,n/a,1,1
6,1.25,2,..\..\JOCN-master\task a\images\sunchips_harvest cheddar_chips.jpg ..\..\JOCN-master\task a\images\milkyway_orginal_candy.jpg,2,1.39068957767,..\..\JOCN-master\task a\images\milkyway_orginal_candy.jpg,2.11105719316,4,4,3.28477058164,0,2
7,0.5,3,..\..\JOCN-master\task a\images\nabisco_nutter butter_bites.jpg ..\..\JOCN-master\task a\images\poptarts_brown_sugar.jpg ..\..\JOCN-master\task a\images\m&m's_milk_chocholate.jpg,3,5.68889663555e-06,..\..\JOCN-master\task a\images\nabisco_nutter butter_bites.jpg,7.96443782747e-06,n/a,n/a,,1,2
4,1.0,12,1.75 1.0 1.25 1.5 0.75 0.5,1.0,5.68889663555e-06,$1.25,4.55111148767e-06,n/a,n/a,,1,1
5,1.5,3,..\..\JOCN-master\task a\images\barnum's_animal_crackers.jpg ..\..\JOCN-master\task a\images\skittles_original_candy.jpg ..\..\JOCN-master\task a\images\fiber one_oats and choc_chewy bar.jpg,3,1.39369785786,..\..\JOCN-master\task a\images\skittles_original_candy.jpg,2.19029932047,5,5,2.64703054645,0,2
6,1.25,3,..\..\JOCN-master\task a\images\nestle_butterfinger_cups.jpg ..\..\JOCN-master\task a\images\poptarts_strawberry_frosted.jpg ..\..\JOCN-master\task a\images\nature_valley_sweet_and_salty.jpg,3,2.64245270408,..\..\JOCN-master\task a\images\poptarts_strawberry_frosted.jpg,2.31798795666,4,5,3.61093858001,0,2
5,1.0,6,..\..\JOCN-master\task a\images\planters_salted_cashews.jpg ..\..\JOCN-master\task a\images\nestle_butterfinger_cups.jpg ..\..\JOCN-master\task a\images\cheez itz_original.jpg ..\..\JOCN-master\task a\images\starburst_orignal_candy.jpg ..\..\JOCN-master\task a\images\baked_lays_classic.jpg ..\..\JOCN-master\task a\images\cliff_chocolate chip_bar.jpg,6,2.10002645329,..\..\JOCN-master\task a\images\nestle_butterfinger_cups.jpg,1.71963147429,5,5,2.46270341307,0,2
8,1.25,6,0.5 1.75 1.25,1.25,5.68889663555e-06,$0.5,4.55111148767e-06,n/a,n/a,,1,2
6,1.5,2,..\..\JOCN-master\task a\images\austin_cheddar cheese_cheese cracker.jpg ..\..\JOCN-master\task a\images\baked_cheetos_crunchy.jpg,2,1.66383379363,..\..\JOCN-master\task a\images\austin_cheddar cheese_cheese cracker.jpg,2.12611622954,2,2,3.1620921428,0,2
4,1.25,12,..\..\JOCN-master\task a\images\twix_milk chocolate_cookie bars.jpg ..\..\JOCN-master\task a\images\kettle_salt_pepper.jpg ..\..\JOCN-master\task a\images\austin_peanut butter_cheese cracker.jpg ..\..\JOCN-master\task a\images\pringles_the original_potato crisps.jpg ..\..\JOCN-master\task a\images\austin_cheddar cheese_cheese cracker.jpg ..\..\JOCN-master\task a\images\nestle_crunch_bar.jpg ..\..\JOCN-master\task a\images\cheez-it_white_cheddar.JPG ..\..\JOCN-master\task a\images\pringles_cheddar_potato crisps.jpg ..\..\JOCN-master\task a\images\snyders_mini_pretzels.jpg ..\..\JOCN-master\task a\images\fiber one_oats and choc_chewy bar.jpg ..\..\JOCN-master\task a\images\m&m's_peanut_butter.jpg ..\..\JOCN-master\task a\images\nabisco_nutter butter_bites.jpg,12,5.68889663555e-06,..\..\JOCN-master\task a\images\austin_cheddar cheese_cheese cracker.jpg,6.82665267959e-06,n/a,n/a,,1,1
8,1.0,3,..\..\JOCN-master\task a\images\kitkat_crisp wafers_milk choc.jpg ..\..\JOCN-master\task a\images\starburst_orignal_candy.jpg ..\..\JOCN-master\task a\images\austin_cheddar cheese_cheese cracker.jpg,3,5.11997495778e-06,..\..\JOCN-master\task a\images\starburst_orignal_candy.jpg,7.96443782747e-06,n/a,n/a,,1,2
1,1.25,12,..\..\JOCN-master\task a\images\fritos_original_corn chips.jpg ..\..\JOCN-master\task a\images\sun chips_garden salsa_chips.jpg ..\..\JOCN-master\task a\images\kitkat_crisp wafers_milk choc.jpg ..\..\JOCN-master\task a\images\pringles_sour cream and onion_potato crisps.jpg ..\..\JOCN-master\task a\images\garden_veggie straws_zesty ranch.jpg ..\..\JOCN-master\task a\images\nestle_butterfinger_cups.jpg ..\..\JOCN-master\task a\images\quaker_chewy_chocolate chip.jpg ..\..\JOCN-master\task a\images\nuture valley_crunchy_bar.jpg ..\..\JOCN-master\task a\images\nestle_butterfinger_bar.jpg ..\..\JOCN-master\task a\images\kettle_salt_vinegar.jpg ..\..\JOCN-master\task a\images\skinny_pop_popcorn.jpg ..\..\JOCN-master\task a\images\nabisco_oreo_mini.jpg,12,1.38517250109,..\..\JOCN-master\task a\images\garden_veggie straws_zesty ranch.jpg,2.02050158862,6,6,3.17643950018,0,1
5,1.75,12,..\..\JOCN-master\task a\images\nestle_crunch_bar.jpg ..\..\JOCN-master\task a\images\nature_valley_sweet_and_salty.jpg ..\..\JOCN-master\task a\images\hersheys_milk choc_almond.jpg ..\..\JOCN-master\task a\images\pringles_sour cream and onion_potato crisps.jpg ..\..\JOCN-master\task a\images\m&m's_milk_chocholate.jpg ..\..\JOCN-master\task a\images\m&m's_peanut.jpg ..\..\JOCN-master\task a\images\garden_veggie straws_zesty ranch.jpg ..\..\JOCN-master\task a\images\nuture valley_crunchy_bar.jpg ..\..\JOCN-master\task a\images\famous_amos_chocolate_chip.jpg ..\..\JOCN-master\task a\images\doritos_cool ranch_chips.jpg ..\..\JOCN-master\task a\images\nestle_butterfinger_bar.jpg ..\..\JOCN-master\task a\images\keebler_chips delux_cookies_crackers.jpg,12,1.5395419882,..\..\JOCN-master\task a\images\famous_amos_chocolate_chip.jpg,2.95802004193,4,5,3.27683174852,0,2
3,0.75,3,..\..\JOCN-master\task a\images\quaker_chewy_peanut butter choc chip.jpg ..\..\JOCN-master\task a\images\twix_milk chocolate_cookie bars.jpg ..\..\JOCN-master\task a\images\swedish fish_original_candy.jpg,3,5.68889663555e-06,..\..\JOCN-master\task a\images\quaker_chewy_peanut butter choc chip.jpg,1.02399790194e-05,n/a,n/a,,1,1
1,1.25,3,..\..\JOCN-master\task a\images\nuture valley_crunchy_bar.jpg ..\..\JOCN-master\task a\images\m&m's_peanut.jpg ..\..\JOCN-master\task a\images\pringles_sour cream and onion_potato crisps.jpg,3,1.86960118101,..\..\JOCN-master\task a\images\m&m's_peanut.jpg,2.06921945713,5,6,2.36920608825,0,1
1,0.5,12,..\..\JOCN-master\task a\images\welch's_mixed fruit_fruit snacks.jpg ..\..\JOCN-master\task a\images\pirates booty_aged white cheddar_ corn puffs.jpg ..\..\JOCN-master\task a\images\haribo_gold_bears.jpg ..\..\JOCN-master\task a\images\snickers_milk chocolate_candy bar.jpg ..\..\JOCN-master\task a\images\m&m's_peanut.jpg ..\..\JOCN-master\task a\images\reeses_peanut butter cups_milk choc.jpg ..\..\JOCN-master\task a\images\quaker_chewy_chocolate chip.jpg ..\..\JOCN-master\task a\images\kettle_salt_vinegar.jpg ..\..\JOCN-master\task a\images\pringles_sour cream and onion_potato crisps.jpg ..\..\JOCN-master\task a\images\nature valley_oats and honey_crunchy.jpg ..\..\JOCN-master\task a\images\kettle_original.jpg ..\..\JOCN-master\task a\images\poptarts_strawberry_frosted.jpg,12,2.52799526684,..\..\JOCN-master\task a\images\kettle_salt_vinegar.jpg,3.97155730266,6,7,2.93784499506,0,1
7,1.5,12,1.75 0.5 1.5 0.75 1.25 1.0,1.5,5.11997495778e-06,$1.5,4.55111148767e-06,n/a,n/a,,1,2
6,1.5,6,1.5 1.75 1.25,1.5,3.83449794204,$1.5,4.41555795123,1,7,n/a,1,2
8,1.5,2,..\..\JOCN-master\task a\images\poptarts_brown_sugar.jpg ..\..\JOCN-master\task a\images\planters_salted_peanuts.jpg,2,5.68889663555e-06,..\..\JOCN-master\task a\images\poptarts_brown_sugar.jpg,7.39554525353e-06,n/a,n/a,,1,2
6,1.0,12,..\..\JOCN-master\task a\images\garden_veggie straws_zesty ranch.jpg ..\..\JOCN-master\task a\images\nabisco_nutter butter_cookies and crackers.jpg ..\..\JOCN-master\task a\images\cheetos_crunchy_chips.jpg ..\..\JOCN-master\task a\images\fiber one_oats and choc_chewy bar.jpg ..\..\JOCN-master\task a\images\austin_cheddar cheese_cheese cracker.jpg ..\..\JOCN-master\task a\images\pringles_sour cream and onion_potato crisps.jpg ..\..\JOCN-master\task a\images\sun chips_original_chips.jpg ..\..\JOCN-master\task a\images\nestle_butterfinger_bar.jpg ..\..\JOCN-master\task a\images\nabisco_chips ahhoy_mini.jpg ..\..\JOCN-master\task a\images\famous_amos_chocolate_chip.jpg ..\..\JOCN-master\task a\images\pringles_cheddar_potato crisps.jpg ..\..\JOCN-master\task a\images\doritos_cool ranch_chips.jpg,12,1.80725958079,..\..\JOCN-master\task a\images\sun chips_original_chips.jpg,2.27666278873,2,2,2.4161262704,0,2
5,0.75,6,..\..\JOCN-master\task a\images\planters_salted_cashews.jpg ..\..\JOCN-master\task a\images\grandmas_chocolate chip_cookies.jpg ..\..\JOCN-master\task a\images\haribo_gold_bears.jpg ..\..\JOCN-master\task a\images\sourpatchkids_original_candy.jpg ..\..\JOCN-master\task a\images\kind bar_peanut butter_bar.jpg ..\..\JOCN-master\task a\images\cliff_chocolate chip_bar.jpg,6,1.44929984098,..\..\JOCN-master\task a\images\kind bar_peanut butter_bar.jpg,2.63532908753,3,4,2.89731683937,0,2
6,1.0,6,..\..\JOCN-master\task a\images\skittles_wild berry_candy.jpg ..\..\JOCN-master\task a\images\barnum's_animal_crackers.jpg ..\..\JOCN-master\task a\images\pringles_cheddar_potato crisps.jpg ..\..\JOCN-master\task a\images\doritos_cool ranch_chips.jpg ..\..\JOCN-master\task a\images\nestle_babyruth_bar.jpg ..\..\JOCN-master\task a\images\starburst_orignal_candy.jpg,6,2.04219727332,..\..\JOCN-master\task a\images\barnum's_animal_crackers.jpg,4.2843535867,2,3,3.39697123988,0,2
2,1.75,2,..\..\JOCN-master\task a\images\nestle_butterfinger_bar.jpg ..\..\JOCN-master\task a\images\pepperidge farms-goldish-cheddar.jpg,2,1.12107815669,..\..\JOCN-master\task a\images\nestle_butterfinger_bar.jpg,1.33152237293,1,1,n/a,1,1
2,1.25,2,..\..\JOCN-master\task a\images\nestle_butterfinger_cups.jpg ..\..\JOCN-master\task a\images\famous_amos_chocolate_chip.jpg,2,1.04108054601,..\..\JOCN-master\task a\images\nestle_butterfinger_cups.jpg,1.2356539226,6,5,3.05009400877,0,1
3,1.5,2,..\..\JOCN-master\task a\images\sun chips_original_chips.jpg ..\..\JOCN-master\task a\images\grandmas_chocolate chip_cookies.jpg,2,5.68886753172e-06,..\..\JOCN-master\task a\images\sun chips_original_chips.jpg,9.10219387151e-06,n/a,n/a,,1,1
5,1.0,2,..\..\JOCN-master\task a\images\nabisco_nutter butter_bites.jpg ..\..\JOCN-master\task a\images\garden_veggie straws_zesty ranch.jpg,2,1.91411041547,..\..\JOCN-master\task a\images\garden_veggie straws_zesty ranch.jpg,1.04981525359,6,5,2.64512932248,0,2
2,1.0,3,..\..\JOCN-master\task a\images\m&m's_milk_chocholate.jpg ..\..\JOCN-master\task a\images\starburst_orignal_candy.jpg ..\..\JOCN-master\task a\images\baked_cheetos_crunchy.jpg,3,1.05694114568,..\..\JOCN-master\task a\images\m&m's_milk_chocholate.jpg,4.16120012628,3,2,3.65194346389,0,1
2,1.25,3,..\..\JOCN-master\task a\images\garden_veggie straws_zesty ranch.jpg ..\..\JOCN-master\task a\images\kettle_salt_vinegar.jpg ..\..\JOCN-master\task a\images\sun chips_garden salsa_chips.jpg,3,2.59146155883,..\..\JOCN-master\task a\images\garden_veggie straws_zesty ranch.jpg,1.19054564901,4,7,4.14939114754,0,1
5,0.5,3,..\..\JOCN-master\task a\images\skittles_sour_candy.jpg ..\..\JOCN-master\task a\images\barnum's_animal_crackers.jpg ..\..\JOCN-master\task a\images\welch's_mixed fruit_fruit snacks.jpg,3,1.4922895754,..\..\JOCN-master\task a\images\welch's_mixed fruit_fruit snacks.jpg,3.35199096607,4,4,3.90271501837,0,2
5,0.5,2,..\..\JOCN-master\task a\images\m&m's_peanut.jpg ..\..\JOCN-master\task a\images\m&m's_peanut_butter.jpg,2,1.54353216922,..\..\JOCN-master\task a\images\m&m's_peanut_butter.jpg,2.03048443666,3,5,4.22356448203,0,2
1,1.5,2,..\..\JOCN-master\task a\images\nuture valley_crunchy_bar.jpg ..\..\JOCN-master\task a\images\cliff_chocolate chip_bar.jpg,2,1.60259128522,..\..\JOCN-master\task a\images\nuture valley_crunchy_bar.jpg,1.45006954655,6,5,3.9563987109,0,1
1,1.5,12,..\..\JOCN-master\task a\images\m&m's_peanut_butter.jpg ..\..\JOCN-master\task a\images\quaker_chewy_peanut butter choc chip.jpg ..\..\JOCN-master\task a\images\kettle_salt_pepper.jpg ..\..\JOCN-master\task a\images\hersey_milk_chocolate.jpg ..\..\JOCN-master\task a\images\haribo_gold_bears.jpg ..\..\JOCN-master\task a\images\nestle_butterfinger_bar.jpg ..\..\JOCN-master\task a\images\3 musketeers_candy bar.jpg ..\..\JOCN-master\task a\images\reeses_peanut butter cups_milk choc.jpg ..\..\JOCN-master\task a\images\pringles_sour cream and onion_potato crisps.jpg ..\..\JOCN-master\task a\images\nuture valley_crunchy_bar.jpg ..\..\JOCN-master\task a\images\kettle_original.jpg ..\..\JOCN-master\task a\images\planters_salted_peanuts.jpg,12,2.03008450833,..\..\JOCN-master\task a\images\quaker_chewy_peanut butter choc chip.jpg,3.55102556298,3,6,2.67165941806,0,1
4,1.75,12,..\..\JOCN-master\task a\images\keebler_chips delux_cookies_crackers.jpg ..\..\JOCN-master\task a\images\m&m's_milk_chocholate.jpg ..\..\JOCN-master\task a\images\doritos_nacho cheesier_chips.jpg ..\..\JOCN-master\task a\images\planters_salted_cashews.jpg ..\..\JOCN-master\task a\images\cheez-it_white_cheddar.JPG ..\..\JOCN-master\task a\images\austin_peanut butter_cheese cracker.jpg ..\..\JOCN-master\task a\images\quaker_chewy_peanut butter choc chip.jpg ..\..\JOCN-master\task a\images\kettle_salt_vinegar.jpg ..\..\JOCN-master\task a\images\famous_amos_chocolate_chip.jpg ..\..\JOCN-master\task a\images\poptarts_brown_sugar.jpg ..\..\JOCN-master\task a\images\cheez itz_original.jpg ..\..\JOCN-master\task a\images\garden_veggie straws_sea salt.jpg,12,6.25778920949e-06,..\..\JOCN-master\task a\images\keebler_chips delux_cookies_crackers.jpg,6.82665267959e-06,n/a,n/a,,1,1
5,1.0,6,..\..\JOCN-master\task a\images\cliff_chocolate chip_bar.jpg ..\..\JOCN-master\task a\images\nabisco_teddy graham_honey.jpg ..\..\JOCN-master\task a\images\kind bar_peanut butter_bar.jpg ..\..\JOCN-master\task a\images\keebler_chips_deluxe.jpg ..\..\JOCN-master\task a\images\cheetos_crunchy_chips.jpg ..\..\JOCN-master\task a\images\quaker_chewy_peanut butter choc chip.jpg,6,1.88445598652,..\..\JOCN-master\task a\images\keebler_chips_deluxe.jpg,2.36381701147,3,4,3.76523183612,0,2
8,1.5,3,..\..\JOCN-master\task a\images\nabisco_oreo_mini.jpg ..\..\JOCN-master\task a\images\doritos_cool ranch_chips.jpg ..\..\JOCN-master\task a\images\lays_kc masterpiece_barbecue chips.jpg,3,5.68886753172e-06,..\..\JOCN-master\task a\images\nabisco_oreo_mini.jpg,9.10222297534e-06,n/a,n/a,,1,2
5,0.75,12,..\..\JOCN-master\task a\images\sourpatch_watermelon_candy.jpg ..\..\JOCN-master\task a\images\nuture valley_crunchy_bar.jpg ..\..\JOCN-master\task a\images\3 musketeers_candy bar.jpg ..\..\JOCN-master\task a\images\sun chips_garden salsa_chips.jpg ..\..\JOCN-master\task a\images\starburst_orignal_candy.jpg ..\..\JOCN-master\task a\images\grandmas_chocolate brownie_cookie.jpg ..\..\JOCN-master\task a\images\pepperidge farms-goldish-cheddar.jpg ..\..\JOCN-master\task a\images\skittles_wild berry_candy.jpg ..\..\JOCN-master\task a\images\nestle_crunch_bar.jpg ..\..\JOCN-master\task a\images\planters_salted_peanuts.jpg ..\..\JOCN-master\task a\images\sunchips_harvest cheddar_chips.jpg ..\..\JOCN-master\task a\images\kettle_original.jpg,12,1.48156546624,..\..\JOCN-master\task a\images\skittles_wild berry_candy.jpg,2.63536435858,2,4,4.27264530113,0,2
3,0.5,3,..\..\JOCN-master\task a\images\garden_veggie straws_sea salt.jpg ..\..\JOCN-master\task a\images\barnum's_animal_crackers.jpg ..\..\JOCN-master\task a\images\fritos_original_corn chips.jpg,3,6.25776010565e-06,..\..\JOCN-master\task a\images\barnum's_animal_crackers.jpg,1.3653334463e-05,n/a,n/a,,1,1
1,0.5,2,..\..\JOCN-master\task a\images\hersey_milk_chocolate.jpg ..\..\JOCN-master\task a\images\kitkat_crisp wafers_milk choc.jpg,2,1.44925546774,..\..\JOCN-master\task a\images\kitkat_crisp wafers_milk choc.jpg,1.49533881553,6,4,4.29659833372,0,1
2,1.0,3,..\..\JOCN-master\task a\images\baked_lays_classic.jpg ..\..\JOCN-master\task a\images\kettle_salt_pepper.jpg ..\..\JOCN-master\task a\images\planters_salted_cashews.jpg,3,1.86187568089,..\..\JOCN-master\task a\images\kettle_salt_pepper.jpg,2.42557095032,5,4,2.838986469,0,1
4,1.5,2,0.75 1.75 1.0 1.5,1.5,6.25776010565e-06,$1.0,4.55111148767e-06,n/a,n/a,,1,1
1,0.5,2,..\..\JOCN-master\task a\images\kind bar_peanut butter_bar.jpg ..\..\JOCN-master\task a\images\reeses_peanut butter cups_milk choc.jpg,2,1.52239968369,..\..\JOCN-master\task a\images\reeses_peanut butter cups_milk choc.jpg,1.64382201768,6,4,2.50838910806,0,1
2,0.75,2,1.0 0.5 1.5 0.75 1.25 1.75,0.75,3.1624027557,$1.75,1.48278630004,3,3,2.77248003916,0,1
3,1.25,3,0.5 1.5 1.75 0.75 1.25 1.0,1.25,5.12000406161e-06,$0.75,3.98221891373e-06,n/a,n/a,,1,1
2,1.75,2,..\..\JOCN-master\task a\images\poptarts_brown_sugar.jpg ..\..\JOCN-master\task a\images\skittles_wild berry_candy.jpg,2,1.66420072646,..\..\JOCN-master\task a\images\poptarts_brown_sugar.jpg,1.14443840791,6,4,3.09889265936,0,1
6,0.75,12,1.25 0.75 0.5 1.5 1.75 1.0,0.75,2.40721236306,$1.75,0.66773693476,3,3,3.12646950901,0,2
1,1.75,12,..\..\JOCN-master\task a\images\snickers_milk chocolate_candy bar.jpg ..\..\JOCN-master\task a\images\pringles_sour cream and onion_potato crisps.jpg ..\..\JOCN-master\task a\images\m&m's_peanut_butter.jpg ..\..\JOCN-master\task a\images\fiber one_oats and choc_chewy bar.jpg ..\..\JOCN-master\task a\images\kettle_original.jpg ..\..\JOCN-master\task a\images\kettle_salt_pepper.jpg ..\..\JOCN-master\task a\images\nuture valley_crunchy_bar.jpg ..\..\JOCN-master\task a\images\haribo_gold_bears.jpg ..\..\JOCN-master\task a\images\pirates booty_aged white cheddar_ corn puffs.jpg ..\..\JOCN-master\task a\images\3 musketeers_candy bar.jpg ..\..\JOCN-master\task a\images\nature_valley_sweet_and_salty.jpg ..\..\JOCN-master\task a\images\nabisco_teddy graham_honey.jpg,12,1.40148821121,..\..\JOCN-master\task a\images\m&m's_peanut_butter.jpg,3.54795129181,3,4,3.59141434112,0,1
4,1.25,2,..\..\JOCN-master\task a\images\kettle_salt_vinegar.jpg ..\..\JOCN-master\task a\images\nabisco_oreo_mini.jpg,2,5.68886753172e-06,..\..\JOCN-master\task a\images\nabisco_oreo_mini.jpg,9.10222297534e-06,n/a,n/a,,1,1
3,0.5,3,1.0 0.5 0.75 1.5 1.75 1.25,0.5,5.12000406161e-06,$1.75,4.55111148767e-06,n/a,n/a,,1,1
6,1.75,2,..\..\JOCN-master\task a\images\nabisco_nutter butter_cookies and crackers.jpg ..\..\JOCN-master\task a\images\baked_cheetos_crunchy.jpg,2,1.30527785915,..\..\JOCN-master\task a\images\baked_cheetos_crunchy.jpg,1.48417893806,6,6,2.60324891983,0,2
4,1.0,6,..\..\JOCN-master\task a\images\barnum's_animal_crackers.jpg ..\..\JOCN-master\task a\images\m&m's_milk_chocholate.jpg ..\..\JOCN-master\task a\images\baked_cheetos_crunchy.jpg ..\..\JOCN-master\task a\images\wheat_thins.jpg ..\..\JOCN-master\task a\images\welch's_mixed fruit_fruit snacks.jpg ..\..\JOCN-master\task a\images\planters_salted_cashews.jpg,6,5.12000406161e-06,..\..\JOCN-master\task a\images\wheat_thins.jpg,7.96440872364e-06,n/a,n/a,,1,1
3,1.75,2,1.75 0.5 0.75 1.25,1.75,5.11997495778e-06,$0.75,4.55111148767e-06,n/a,n/a,,1,1
2,1.75,12,..\..\JOCN-master\task a\images\planters_salted_peanuts.jpg ..\..\JOCN-master\task a\images\cheez-it_white_cheddar.JPG ..\..\JOCN-master\task a\images\hersey_milk_chocolate.jpg ..\..\JOCN-master\task a\images\snickers_milk chocolate_candy bar.jpg ..\..\JOCN-master\task a\images\reeses_peanut butter cups_milk choc.jpg ..\..\JOCN-master\task a\images\poptarts_strawberry_frosted.jpg ..\..\JOCN-master\task a\images\nabisco_oreo_mini.jpg ..\..\JOCN-master\task a\images\grandmas_chocolate brownie_cookie.jpg ..\..\JOCN-master\task a\images\quaker_chewy_chocolate chip.jpg ..\..\JOCN-master\task a\images\nabisco_chips ahhoy_mini.jpg ..\..\JOCN-master\task a\images\m&m's_peanut.jpg ..\..\JOCN-master\task a\images\skittles_original_candy.jpg,12,1.46033171864,..\..\JOCN-master\task a\images\quaker_chewy_chocolate chip.jpg,4.29465501203,3,4,3.76343301201,0,1
7,1.75,12,1.5 0.75 1.75 1.0,1.75,5.12000406161e-06,$0.75,4.55111148767e-06,n/a,n/a,,1,2
4,1.75,2,1.5 0.5 1.0 1.25 1.75 0.75,1.75,5.12000406161e-06,$1.0,5.12000406161e-06,n/a,n/a,,1,1
2,1.25,3,..\..\JOCN-master\task a\images\poptarts_brown_sugar.jpg ..\..\JOCN-master\task a\images\sunchips_harvest cheddar_chips.jpg ..\..\JOCN-master\task a\images\nabisco_nutter butter_bites.jpg,3,1.50702832779,..\..\JOCN-master\task a\images\sunchips_harvest cheddar_chips.jpg,1.64146682105,4,5,3.15673663042,0,1
3,0.5,2,0.5 1.25 1.5 1.0,0.5,5.68889663555e-06,$1.25,4.55108238384e-06,n/a,n/a,,1,1
7,1.0,2,..\..\JOCN-master\task a\images\grandmas_chocolate brownie_cookie.jpg ..\..\JOCN-master\task a\images\nabisco_nutter butter_bites.jpg,2,5.12000406161e-06,..\..\JOCN-master\task a\images\grandmas_chocolate brownie_cookie.jpg,7.39554525353e-06,n/a,n/a,,1,2
5,1.25,2,..\..\JOCN-master\task a\images\kettle_salt_pepper.jpg ..\..\JOCN-master\task a\images\kettle_original.jpg,2,1.80268515175,..\..\JOCN-master\task a\images\kettle_original.jpg,2.54729934607,4,5,3.11378216706,0,2
2,1.75,12,..\..\JOCN-master\task a\images\kettle_salt_pepper.jpg ..\..\JOCN-master\task a\images\lays_kc masterpiece_barbecue chips.jpg ..\..\JOCN-master\task a\images\sun chips_garden salsa_chips.jpg ..\..\JOCN-master\task a\images\m&m's_peanut_butter.jpg ..\..\JOCN-master\task a\images\skinny_pop_popcorn.jpg ..\..\JOCN-master\task a\images\poptarts_strawberry_frosted.jpg ..\..\JOCN-master\task a\images\nestle_butterfinger_cups.jpg ..\..\JOCN-master\task a\images\snyders_mini_pretzels.jpg ..\..\JOCN-master\task a\images\m&m's_milk_chocholate.jpg ..\..\JOCN-master\task a\images\pirates booty_aged white cheddar_ corn puffs.jpg ..\..\JOCN-master\task a\images\grandmas_chocolate chip_cookies.jpg ..\..\JOCN-master\task a\images\baked_cheetos_crunchy.jpg,12,2.18976342789,..\..\JOCN-master\task a\images\sun chips_garden salsa_chips.jpg,3.25034943951,5,6,3.00944354213,0,1
5,1.75,12,..\..\JOCN-master\task a\images\pringles_the original_potato crisps.jpg ..\..\JOCN-master\task a\images\pringles_cheddar_potato crisps.jpg ..\..\JOCN-master\task a\images\lays_classic_potato chips.jpg ..\..\JOCN-master\task a\images\skinny_pop_popcorn.jpg ..\..\JOCN-master\task a\images\snyders_mini_pretzels.jpg ..\..\JOCN-master\task a\images\starburst_orignal_candy.jpg ..\..\JOCN-master\task a\images\sun chips_garden salsa_chips.jpg ..\..\JOCN-master\task a\images\kitkat_crisp wafers_milk choc.jpg ..\..\JOCN-master\task a\images\quaker_chewy_chocolate chip.jpg ..\..\JOCN-master\task a\images\baked_lays_classic.jpg ..\..\JOCN-master\task a\images\doritos_nacho cheesier_chips.jpg ..\..\JOCN-master\task a\images\pepperidge farms-goldish-cheddar.jpg,12,1.7261315895,..\..\JOCN-master\task a\images\kitkat_crisp wafers_milk choc.jpg,2.40355043052,4,4,2.97533983953,0,2
7,0.5,12,..\..\JOCN-master\task a\images\hersheys_milk choc_almond.jpg ..\..\JOCN-master\task a\images\kitkat_crisp wafers_milk choc.jpg ..\..\JOCN-master\task a\images\nature valley_oats and honey_crunchy.jpg ..\..\JOCN-master\task a\images\snyders_mini_pretzels.jpg ..\..\JOCN-master\task a\images\lays_classic_potato chips.jpg ..\..\JOCN-master\task a\images\pirates booty_aged white cheddar_ corn puffs.jpg ..\..\JOCN-master\task a\images\twix_milk chocolate_cookie bars.jpg ..\..\JOCN-master\task a\images\keebler_chips_deluxe.jpg ..\..\JOCN-master\task a\images\skittles_original_candy.jpg ..\..\JOCN-master\task a\images\grandmas_chocolate brownie_cookie.jpg ..\..\JOCN-master\task a\images\pringles_cheddar_potato crisps.jpg ..\..\JOCN-master\task a\images\starburst_orignal_candy.jpg,12,5.68889663555e-06,..\..\JOCN-master\task a\images\starburst_orignal_candy.jpg,7.39554525353e-06,n/a,n/a,,1,2
4,0.5,2,1.75 0.5 1.0 0.75 1.25 1.5,0.5,5.68886753172e-06,$0.5,5.12000406161e-06,n/a,n/a,,1,1
1,0.75,3,..\..\JOCN-master\task a\images\hersheys_milk choc_almond.jpg ..\..\JOCN-master\task a\images\skinny_pop_popcorn.jpg ..\..\JOCN-master\task a\images\cliff_chocolate chip_bar.jpg,3,1.6751757153,..\..\JOCN-master\task a\images\skinny_pop_popcorn.jpg,2.07140910733,5,5,3.43646800146,0,1
1,1.5,2,..\..\JOCN-master\task a\images\garden_veggie straws_sea salt.jpg ..\..\JOCN-master\task a\images\nabisco_teddy graham_honey.jpg,2,0.918048827676,..\..\JOCN-master\task a\images\garden_veggie straws_sea salt.jpg,1.40799799754,5,6,2.64409451507,0,1
8,0.75,12,1.25 0.5 1.5 0.75 1.0 1.75,0.75,5.68886753172e-06,$0.75,4.55111148767e-06,n/a,n/a,,1,2
6,1.75,3,..\..\JOCN-master\task a\images\sun chips_original_chips.jpg ..\..\JOCN-master\task a\images\hersheys_milk choc_almond.jpg ..\..\JOCN-master\task a\images\nabisco_teddy graham_honey.jpg,3,3.09200001138,..\..\JOCN-master\task a\images\hersheys_milk choc_almond.jpg,2.16929995478,4,4,2.67952258914,0,2
6,1.75,2,..\..\JOCN-master\task a\images\pepperidge farms-goldish-cheddar.jpg ..\..\JOCN-master\task a\images\poptarts_strawberry_frosted.jpg,2,1.57893122997,..\..\JOCN-master\task a\images\poptarts_strawberry_frosted.jpg,1.54473821193,5,4,3.71967015869,0,2
8,1.75,12,1.75 1.25,1.75,5.68889663555e-06,$1.75,4.55111148767e-06,n/a,n/a,,1,2
5,0.5,6,..\..\JOCN-master\task a\images\skittles_original_candy.jpg ..\..\JOCN-master\task a\images\austin_cheddar cheese_cheese cracker.jpg ..\..\JOCN-master\task a\images\pirates booty_aged white cheddar_ corn puffs.jpg ..\..\JOCN-master\task a\images\famous_amos_chocolate_chip.jpg ..\..\JOCN-master\task a\images\garden_veggie straws_zesty ranch.jpg ..\..\JOCN-master\task a\images\hersheys_milk choc_almond.jpg,6,2.35322886653,..\..\JOCN-master\task a\images\famous_amos_chocolate_chip.jpg,3.58696563629,6,5,2.94859242867,0,2
4,0.5,2,0.5 1.5 1.0,0.5,5.68886753172e-06,$0.5,4.55108238384e-06,n/a,n/a,,1,1
1,1.25,2,..\..\JOCN-master\task a\images\kind bar_peanut butter_bar.jpg ..\..\JOCN-master\task a\images\hersey_milk_chocolate.jpg,2,1.13525939875,..\..\JOCN-master\task a\images\hersey_milk_chocolate.jpg,1.98155892399,4,4,2.09497529603,0,1
6,1.25,2,..\..\JOCN-master\task a\images\m&m's_peanut_butter.jpg ..\..\JOCN-master\task a\images\nabisco_teddy graham_honey.jpg,2,1.39179151389,..\..\JOCN-master\task a\images\nabisco_teddy graham_honey.jpg,2.55016881754,2,2,3.00068892346,0,2
8,1.75,6,1.25 1.75 1.5 1.0,1.75,5.68886753172e-06,$1.25,4.55111148767e-06,n/a,n/a,,1,2
5,0.5,12,..\..\JOCN-master\task a\images\m&m's_milk_chocholate.jpg ..\..\JOCN-master\task a\images\pringles_sour cream and onion_potato crisps.jpg ..\..\JOCN-master\task a\images\quaker_chewy_chocolate chip.jpg ..\..\JOCN-master\task a\images\fiber one_oats and choc_chewy bar.jpg ..\..\JOCN-master\task a\images\pringles_the original_potato crisps.jpg ..\..\JOCN-master\task a\images\doritos_cool ranch_chips.jpg ..\..\JOCN-master\task a\images\nestle_babyruth_bar.jpg ..\..\JOCN-master\task a\images\planters_salted_cashews.jpg ..\..\JOCN-master\task a\images\fritos_original_corn chips.jpg ..\..\JOCN-master\task a\images\poptarts_strawberry_frosted.jpg ..\..\JOCN-master\task a\images\nabisco_chips ahhoy_mini.jpg ..\..\JOCN-master\task a\images\planters_salted_peanuts.jpg,12,1.99565141954,..\..\JOCN-master\task a\images\poptarts_strawberry_frosted.jpg,2.96814454309,4,5,2.78505417236,0,2
5,1.5,12,..\..\JOCN-master\task a\images\kettle_salt_pepper.jpg ..\..\JOCN-master\task a\images\pirates booty_aged white cheddar_ corn puffs.jpg ..\..\JOCN-master\task a\images\skittles_wild berry_candy.jpg ..\..\JOCN-master\task a\images\cheez itz_original.jpg ..\..\JOCN-master\task a\images\skittles_original_candy.jpg ..\..\JOCN-master\task a\images\nature_valley_sweet_and_salty.jpg ..\..\JOCN-master\task a\images\nuture valley_crunchy_bar.jpg ..\..\JOCN-master\task a\images\garden_veggie straws_sea salt.jpg ..\..\JOCN-master\task a\images\welch's_mixed fruit_fruit snacks.jpg ..\..\JOCN-master\task a\images\nabisco_nutter butter_bites.jpg ..\..\JOCN-master\task a\images\snyders_mini_pretzels.jpg ..\..\JOCN-master\task a\images\kitkat_crisp wafers_milk choc.jpg,12,1.47479171585,..\..\JOCN-master\task a\images\kitkat_crisp wafers_milk choc.jpg,4.10250396089,2,4,2.4135622918,0,2
1,1.0,2,..\..\JOCN-master\task a\images\haribo_gold_bears.jpg ..\..\JOCN-master\task a\images\fritos_original_corn chips.jpg,2,1.25424802949,..\..\JOCN-master\task a\images\haribo_gold_bears.jpg,1.90073016784,3,3,3.3683675472,0,1
6,1.5,2,..\..\JOCN-master\task a\images\milkyway_orginal_candy.jpg ..\..\JOCN-master\task a\images\sun chips_garden salsa_chips.jpg,2,1.82280046536,..\..\JOCN-master\task a\images\milkyway_orginal_candy.jpg,2.02021828236,4,5,3.24346589373,0,2
8,1.5,3,..\..\JOCN-master\task a\images\planters_salted_peanuts.jpg ..\..\JOCN-master\task a\images\doritos_cool ranch_chips.jpg ..\..\JOCN-master\task a\images\pringles_the original_potato crisps.jpg,3,5.68886753172e-06,..\..\JOCN-master\task a\images\planters_salted_peanuts.jpg,1.02399790194e-05,n/a,n/a,,1,2
2,0.75,12,..\..\JOCN-master\task a\images\quaker_chewy_peanut butter choc chip.jpg ..\..\JOCN-master\task a\images\barnum's_animal_crackers.jpg ..\..\JOCN-master\task a\images\pringles_the original_potato crisps.jpg ..\..\JOCN-master\task a\images\m&m's_peanut_butter.jpg ..\..\JOCN-master\task a\images\pringles_sour cream and onion_potato crisps.jpg ..\..\JOCN-master\task a\images\garden_veggie straws_sea salt.jpg ..\..\JOCN-master\task a\images\reeses_peanut butter cups_milk choc.jpg ..\..\JOCN-master\task a\images\nestle_babyruth_bar.jpg ..\..\JOCN-master\task a\images\m&m's_peanut.jpg ..\..\JOCN-master\task a\images\sunchips_harvest cheddar_chips.jpg ..\..\JOCN-master\task a\images\baked_lays_classic.jpg ..\..\JOCN-master\task a\images\garden_veggie straws_zesty ranch.jpg,12,2.48755756437,..\..\JOCN-master\task a\images\garden_veggie straws_zesty ranch.jpg,2.24378560885,1,7,n/a,1,1
2,1.75,12,..\..\JOCN-master\task a\images\hersheys_milk choc_almond.jpg ..\..\JOCN-master\task a\images\austin_cheddar cheese_cheese cracker.jpg ..\..\JOCN-master\task a\images\sun chips_original_chips.jpg ..\..\JOCN-master\task a\images\planters_salted_peanuts.jpg ..\..\JOCN-master\task a\images\grandmas_chocolate brownie_cookie.jpg ..\..\JOCN-master\task a\images\cheetos_crunchy_chips.jpg ..\..\JOCN-master\task a\images\swedish fish_original_candy.jpg ..\..\JOCN-master\task a\images\m&m's_peanut.jpg ..\..\JOCN-master\task a\images\skittles_sour_candy.jpg ..\..\JOCN-master\task a\images\nuture valley_crunchy_bar.jpg ..\..\JOCN-master\task a\images\cheez-it_white_cheddar.JPG ..\..\JOCN-master\task a\images\skittles_wild berry_candy.jpg,12,1.58639447266,..\..\JOCN-master\task a\images\sun chips_original_chips.jpg,3.31104922871,2,2,2.30243683208,0,1
6,1.5,6,..\..\JOCN-master\task a\images\sourpatchkids_original_candy.jpg ..\..\JOCN-master\task a\images\nature_valley_sweet_and_salty.jpg ..\..\JOCN-master\task a\images\hersey_milk_chocolate.jpg ..\..\JOCN-master\task a\images\nestle_butterfinger_bar.jpg ..\..\JOCN-master\task a\images\nestle_butterfinger_cups.jpg ..\..\JOCN-master\task a\images\emerald_natural_almonds.jpg,6,1.12530954622,..\..\JOCN-master\task a\images\hersey_milk_chocolate.jpg,2.85271430723,2,5,3.4122407648,0,2
1,0.5,2,..\..\JOCN-master\task a\images\pringles_sour cream and onion_potato crisps.jpg ..\..\JOCN-master\task a\images\cliff_chocolate chip_bar.jpg,2,1.3053961879,..\..\JOCN-master\task a\images\pringles_sour cream and onion_potato crisps.jpg,2.0876138843,5,3,3.47677656636,0,1
2,0.75,2,..\..\JOCN-master\task a\images\sun chips_original_chips.jpg ..\..\JOCN-master\task a\images\austin_peanut butter_cheese cracker.jpg,2,1.10844372131,..\..\JOCN-master\task a\images\sun chips_original_chips.jpg,1.50807906405,4,2,2.52444142301,0,1
2,0.75,6,..\..\JOCN-master\task a\images\sun chips_garden salsa_chips.jpg ..\..\JOCN-master\task a\images\nestle_crunch_bar.jpg ..\..\JOCN-master\task a\images\kind bar_peanut butter_bar.jpg ..\..\JOCN-master\task a\images\garden_veggie straws_sea salt.jpg ..\..\JOCN-master\task a\images\skittles_sour_candy.jpg ..\..\JOCN-master\task a\images\nature_valley_sweet_and_salty.jpg,6,1.31670170071,..\..\JOCN-master\task a\images\sun chips_garden salsa_chips.jpg,2.72412284568,6,6,2.97660561549,0,1
7,1.75,12,..\..\JOCN-master\task a\images\doritos_cool ranch_chips.jpg ..\..\JOCN-master\task a\images\starburst_orignal_candy.jpg ..\..\JOCN-master\task a\images\poptarts_strawberry_frosted.jpg ..\..\JOCN-master\task a\images\cheez itz_original.jpg ..\..\JOCN-master\task a\images\cheetos_crunchy_chips.jpg ..\..\JOCN-master\task a\images\sun chips_garden salsa_chips.jpg ..\..\JOCN-master\task a\images\grandmas_chocolate brownie_cookie.jpg ..\..\JOCN-master\task a\images\nabisco_chips ahhoy_mini.jpg ..\..\JOCN-master\task a\images\keebler_vanilla_sugar_wafers.jpg ..\..\JOCN-master\task a\images\fiber one_oats and choc_chewy bar.jpg ..\..\JOCN-master\task a\images\swedish fish_original_candy.jpg ..\..\JOCN-master\task a\images\nestle_crunch_bar.jpg,12,5.68889663555e-06,..\..\JOCN-master\task a\images\cheetos_crunchy_chips.jpg,9.67108644545e-06,n/a,n/a,,1,2
5,1.75,3,..\..\JOCN-master\task a\images\nabisco_oreo_mini.jpg ..\..\JOCN-master\task a\images\pepperidge farms-goldish-cheddar.jpg ..\..\JOCN-master\task a\images\baked_cheetos_crunchy.jpg,3,3.84505934923,..\..\JOCN-master\task a\images\nabisco_oreo_mini.jpg,2.53590622448,4,4,3.50699305671,0,2
6,0.75,2,..\..\JOCN-master\task a\images\quaker_chewy_chocolate chip.jpg ..\..\JOCN-master\task a\images\nabisco_nutter butter_cookies and crackers.jpg,2,1.61112289975,..\..\JOCN-master\task a\images\nabisco_nutter butter_cookies and crackers.jpg,2.21796264112,3,4,2.55597204482,0,2
8,1.25,6,1.25 1.5 1.75 0.5,1.25,5.12000406161e-06,$1.75,4.55111148767e-06,n/a,n/a,,1,2
2,1.0,2,..\..\JOCN-master\task a\images\m&m's_peanut.jpg ..\..\JOCN-master\task a\images\nestle_babyruth_bar.jpg,2,2.10585357391,..\..\JOCN-master\task a\images\nestle_babyruth_bar.jpg,2.3527805827,4,2,n/a,1,1
6,0.5,12,1.0 0.5 0.75,0.5,1.62968230445,$1.0,3.70031544843,2,2,2.25698381229,0,2
7,1.75,12,1.75 1.5 0.75,1.75,5.68889663555e-06,$1.75,4.55108238384e-06,n/a,n/a,,1,2
5,1.75,12,..\..\JOCN-master\task a\images\kettle_original.jpg ..\..\JOCN-master\task a\images\kettle_salt_vinegar.jpg ..\..\JOCN-master\task a\images\keebler_chips_deluxe.jpg ..\..\JOCN-master\task a\images\sun chips_original_chips.jpg ..\..\JOCN-master\task a\images\pirates booty_aged white cheddar_ corn puffs.jpg ..\..\JOCN-master\task a\images\pringles_cheddar_potato crisps.jpg ..\..\JOCN-master\task a\images\skittles_sour_candy.jpg ..\..\JOCN-master\task a\images\hersheys_milk choc_almond.jpg ..\..\JOCN-master\task a\images\sunchips_harvest cheddar_chips.jpg ..\..\JOCN-master\task a\images\cheez-it_white_cheddar.JPG ..\..\JOCN-master\task a\images\pringles_sour cream and onion_potato crisps.jpg ..\..\JOCN-master\task a\images\garden_veggie straws_zesty ranch.jpg,12,1.83691400971,..\..\JOCN-master\task a\images\sunchips_harvest cheddar_chips.jpg,n/a,5,1,n/a,1,2
2,0.75,12,..\..\JOCN-master\task a\images\lays_classic_potato chips.jpg ..\..\JOCN-master\task a\images\pepperidge farms-goldish-cheddar.jpg ..\..\JOCN-master\task a\images\quaker_chewy_peanut butter choc chip.jpg ..\..\JOCN-master\task a\images\poptarts_brown_sugar.jpg ..\..\JOCN-master\task a\images\cliff_chocolate chip_bar.jpg ..\..\JOCN-master\task a\images\keebler_chips_deluxe.jpg ..\..\JOCN-master\task a\images\snyders_mini_pretzels.jpg ..\..\JOCN-master\task a\images\famous_amos_chocolate_chip.jpg ..\..\JOCN-master\task a\images\kitkat_crisp wafers_milk choc.jpg ..\..\JOCN-master\task a\images\kettle_original.jpg ..\..\JOCN-master\task a\images\m&m's_milk_chocholate.jpg ..\..\JOCN-master\task a\images\pringles_cheddar_potato crisps.jpg,12,1.43582458905,..\..\JOCN-master\task a\images\quaker_chewy_peanut butter choc chip.jpg,2.33348560572,4,6,2.87694154392,0,1
5,1.0,12,..\..\JOCN-master\task a\images\nature_valley_sweet_and_salty.jpg ..\..\JOCN-master\task a\images\nabisco_oreo_mini.jpg ..\..\JOCN-master\task a\images\sun chips_original_chips.jpg ..\..\JOCN-master\task a\images\doritos_nacho cheesier_chips.jpg ..\..\JOCN-master\task a\images\nestle_crunch_bar.jpg ..\..\JOCN-master\task a\images\nabisco_teddy graham_honey.jpg ..\..\JOCN-master\task a\images\garden_veggie straws_sea salt.jpg ..\..\JOCN-master\task a\images\skittles_wild berry_candy.jpg ..\..\JOCN-master\task a\images\garden_veggie straws_zesty ranch.jpg ..\..\JOCN-master\task a\images\kettle_salt_vinegar.jpg ..\..\JOCN-master\task a\images\m&m's_peanut.jpg ..\..\JOCN-master\task a\images\nestle_butterfinger_cups.jpg,12,1.08573143362,..\..\JOCN-master\task a\images\m&m's_peanut.jpg,3.13898959788,3,5,3.1911481015,0,2
5,1.0,3,..\..\JOCN-master\task a\images\pringles_the original_potato crisps.jpg ..\..\JOCN-master\task a\images\kettle_original.jpg ..\..\JOCN-master\task a\images\grandmas_chocolate chip_cookies.jpg,3,1.03408379151,..\..\JOCN-master\task a\images\pringles_the original_potato crisps.jpg,2.28150630186,4,5,2.61777433916,0,2
4,0.75,3,..\..\JOCN-master\task a\images\austin_peanut butter_cheese cracker.jpg ..\..\JOCN-master\task a\images\kettle_salt_vinegar.jpg ..\..\JOCN-master\task a\images\fiber one_oats and choc_chewy bar.jpg,3,5.68886753172e-06,..\..\JOCN-master\task a\images\kettle_salt_vinegar.jpg,6.82665267959e-06,n/a,n/a,,1,1
2,0.75,3,..\..\JOCN-master\task a\images\sourpatch_watermelon_candy.jpg ..\..\JOCN-master\task a\images\pringles_sour cream and onion_potato crisps.jpg ..\..\JOCN-master\task a\images\keebler_chips_deluxe.jpg,3,1.02877094573,..\..\JOCN-master\task a\images\pringles_sour cream and onion_potato crisps.jpg,1.95182143743,4,1,2.9716938358,0,1
6,0.75,2,..\..\JOCN-master\task a\images\milkyway_orginal_candy.jpg ..\..\JOCN-master\task a\images\keebler_chips_deluxe.jpg,2,2.82501059552,..\..\JOCN-master\task a\images\milkyway_orginal_candy.jpg,1.89765191445,3,6,4.0217576935,0,2
1,1.75,12,..\..\JOCN-master\task a\images\reeses_peanut butter cups_milk choc.jpg ..\..\JOCN-master\task a\images\cheez itz_original.jpg ..\..\JOCN-master\task a\images\pirates booty_aged white cheddar_ corn puffs.jpg ..\..\JOCN-master\task a\images\cheez-it_white_cheddar.JPG ..\..\JOCN-master\task a\images\garden_veggie straws_zesty ranch.jpg ..\..\JOCN-master\task a\images\nuture valley_crunchy_bar.jpg ..\..\JOCN-master\task a\images\garden_veggie straws_sea salt.jpg ..\..\JOCN-master\task a\images\hersey_milk_chocolate.jpg ..\..\JOCN-master\task a\images\kind bar_peanut butter_bar.jpg ..\..\JOCN-master\task a\images\fritos_original_corn chips.jpg ..\..\JOCN-master\task a\images\planters_salted_peanuts.jpg ..\..\JOCN-master\task a\images\m&m's_peanut_butter.jpg,12,0.933236432727,..\..\JOCN-master\task a\images\garden_veggie straws_zesty ranch.jpg,1.72745937426,7,7,2.51054291835,0,1
5,1.25,12,..\..\JOCN-master\task a\images\grandmas_chocolate brownie_cookie.jpg ..\..\JOCN-master\task a\images\hersey_milk_chocolate.jpg ..\..\JOCN-master\task a\images\grandmas_chocolate chip_cookies.jpg ..\..\JOCN-master\task a\images\milkyway_orginal_candy.jpg ..\..\JOCN-master\task a\images\pringles_sour cream and onion_potato crisps.jpg ..\..\JOCN-master\task a\images\quaker_chewy_chocolate chip.jpg ..\..\JOCN-master\task a\images\kitkat_crisp wafers_milk choc.jpg ..\..\JOCN-master\task a\images\skittles_original_candy.jpg ..\..\JOCN-master\task a\images\nestle_butterfinger_bar.jpg ..\..\JOCN-master\task a\images\nuture valley_crunchy_bar.jpg ..\..\JOCN-master\task a\images\kettle_original.jpg ..\..\JOCN-master\task a\images\skittles_wild berry_candy.jpg,12,1.21595503509,..\..\JOCN-master\task a\images\milkyway_orginal_candy.jpg,2.26162537016,4,5,2.4744600541,0,2
3,1.75,2,..\..\JOCN-master\task a\images\cliff_chocolate chip_bar.jpg ..\..\JOCN-master\task a\images\keebler_vanilla_sugar_wafers.jpg,2,6.25776010565e-06,..\..\JOCN-master\task a\images\cliff_chocolate chip_bar.jpg,6.82665267959e-06,n/a,n/a,,1,1
8,1.5,6,..\..\JOCN-master\task a\images\m&m's_peanut_butter.jpg ..\..\JOCN-master\task a\images\nestle_crunch_bar.jpg ..\..\JOCN-master\task a\images\austin_peanut butter_cheese cracker.jpg ..\..\JOCN-master\task a\images\nabisco_nutter butter_bites.jpg ..\..\JOCN-master\task a\images\swedish fish_original_candy.jpg ..\..\JOCN-master\task a\images\pepperidge farms-goldish-cheddar.jpg,6,5.12000406161e-06,..\..\JOCN-master\task a\images\m&m's_peanut_butter.jpg,8.53333040141e-06,n/a,n/a,,1,2
4,0.75,2,0.75 1.5 0.5 1.75,0.75,5.68889663555e-06,$0.5,4.55108238384e-06,n/a,n/a,,1,1
1,0.5,2,..\..\JOCN-master\task a\images\nabisco_oreo_mini.jpg ..\..\JOCN-master\task a\images\cheez-it_white_cheddar.JPG,2,1.66183756539,..\..\JOCN-master\task a\images\nabisco_oreo_mini.jpg,1.42613699395,3,5,3.51108393091,0,1
6,1.5,12,..\..\JOCN-master\task a\images\wheat_thins.jpg ..\..\JOCN-master\task a\images\famous_amos_chocolate_chip.jpg ..\..\JOCN-master\task a\images\keebler_chips delux_cookies_crackers.jpg ..\..\JOCN-master\task a\images\grandmas_chocolate brownie_cookie.jpg ..\..\JOCN-master\task a\images\cheez itz_original.jpg ..\..\JOCN-master\task a\images\pringles_sour cream and onion_potato crisps.jpg ..\..\JOCN-master\task a\images\sourpatchkids_original_candy.jpg ..\..\JOCN-master\task a\images\garden_veggie straws_sea salt.jpg ..\..\JOCN-master\task a\images\nestle_crunch_bar.jpg ..\..\JOCN-master\task a\images\planters_salted_peanuts.jpg ..\..\JOCN-master\task a\images\kind bar_peanut butter_bar.jpg ..\..\JOCN-master\task a\images\nabisco_nutter butter_bites.jpg,12,1.06461487699,..\..\JOCN-master\task a\images\nestle_crunch_bar.jpg,1.93612240197,2,4,2.63096400929,0,2
2,1.25,3,..\..\JOCN-master\task a\images\nature valley_oats and honey_crunchy.jpg ..\..\JOCN-master\task a\images\reeses_peanut butter cups_milk choc.jpg ..\..\JOCN-master\task a\images\3 musketeers_candy bar.jpg,3,1.055231637,..\..\JOCN-master\task a\images\3 musketeers_candy bar.jpg,1.63972090351,3,5,2.82003680707,0,1
1,1.75,12,..\..\JOCN-master\task a\images\garden_veggie straws_sea salt.jpg ..\..\JOCN-master\task a\images\pringles_cheddar_potato crisps.jpg ..\..\JOCN-master\task a\images\m&m's_peanut.jpg ..\..\JOCN-master\task a\images\fiber one_oats and choc_chewy bar.jpg ..\..\JOCN-master\task a\images\nestle_babyruth_bar.jpg ..\..\JOCN-master\task a\images\planters_salted_peanuts.jpg ..\..\JOCN-master\task a\images\nestle_butterfinger_bar.jpg ..\..\JOCN-master\task a\images\nestle_butterfinger_cups.jpg ..\..\JOCN-master\task a\images\nature valley_oats and honey_crunchy.jpg ..\..\JOCN-master\task a\images\kind bar_peanut butter_bar.jpg ..\..\JOCN-master\task a\images\snickers_milk chocolate_candy bar.jpg ..\..\JOCN-master\task a\images\poptarts_strawberry_frosted.jpg,12,0.955001521797,..\..\JOCN-master\task a\images\poptarts_strawberry_frosted.jpg,3.71447165942,3,4,3.34706951529,0,1
5,0.75,2,..\..\JOCN-master\task a\images\pringles_sour cream and onion_potato crisps.jpg ..\..\JOCN-master\task a\images\cliff_chocolate chip_bar.jpg,2,0.805577947642,..\..\JOCN-master\task a\images\pringles_sour cream and onion_potato crisps.jpg,1.04232925535,4,4,3.26258565322,0,2
8,1.5,6,..\..\JOCN-master\task a\images\keebler_chips delux_cookies_crackers.jpg ..\..\JOCN-master\task a\images\quaker_chewy_peanut butter choc chip.jpg ..\..\JOCN-master\task a\images\austin_cheddar cheese_cheese cracker.jpg ..\..\JOCN-master\task a\images\sunchips_harvest cheddar_chips.jpg ..\..\JOCN-master\task a\images\baked_lays_classic.jpg ..\..\JOCN-master\task a\images\doritos_cool ranch_chips.jpg,6,6.25776010565e-06,..\..\JOCN-master\task a\images\baked_lays_classic.jpg,6.82665267959e-06,n/a,n/a,,1,2
5,1.0,12,..\..\JOCN-master\task a\images\m&m's_milk_chocholate.jpg ..\..\JOCN-master\task a\images\lays_classic_potato chips.jpg ..\..\JOCN-master\task a\images\sourpatch_watermelon_candy.jpg ..\..\JOCN-master\task a\images\keebler_vanilla_sugar_wafers.jpg ..\..\JOCN-master\task a\images\sourpatchkids_original_candy.jpg ..\..\JOCN-master\task a\images\kitkat_crisp wafers_milk choc.jpg ..\..\JOCN-master\task a\images\kind bar_peanut butter_bar.jpg ..\..\JOCN-master\task a\images\twix_milk chocolate_cookie bars.jpg ..\..\JOCN-master\task a\images\doritos_nacho cheesier_chips.jpg ..\..\JOCN-master\task a\images\planters_salted_peanuts.jpg ..\..\JOCN-master\task a\images\skinny_pop_popcorn.jpg ..\..\JOCN-master\task a\images\swedish fish_original_candy.jpg,12,2.11665562075,..\..\JOCN-master\task a\images\swedish fish_original_candy.jpg,1.94635612963,3,4,3.5330037575,0,2
1,0.75,6,..\..\JOCN-master\task a\images\cheez-it_white_cheddar.JPG ..\..\JOCN-master\task a\images\haribo_gold_bears.jpg ..\..\JOCN-master\task a\images\nature valley_oats and honey_crunchy.jpg ..\..\JOCN-master\task a\images\m&m's_peanut.jpg ..\..\JOCN-master\task a\images\garden_veggie straws_sea salt.jpg ..\..\JOCN-master\task a\images\skinny_pop_popcorn.jpg,6,1.15341716848,..\..\JOCN-master\task a\images\m&m's_peanut.jpg,3.09026660939,5,4,2.45750206933,0,1
1,1.75,6,..\..\JOCN-master\task a\images\hersheys_milk choc_almond.jpg ..\..\JOCN-master\task a\images\kind bar_peanut butter_bar.jpg ..\..\JOCN-master\task a\images\planters_salted_peanuts.jpg ..\..\JOCN-master\task a\images\nature valley_oats and honey_crunchy.jpg ..\..\JOCN-master\task a\images\m&m's_peanut_butter.jpg ..\..\JOCN-master\task a\images\nestle_butterfinger_bar.jpg,6,1.16932384809,..\..\JOCN-master\task a\images\m&m's_peanut_butter.jpg,1.97326567356,5,5,3.06248780448,0,1
1,1.5,3,..\..\JOCN-master\task a\images\skinny_pop_popcorn.jpg ..\..\JOCN-master\task a\images\barnum's_animal_crackers.jpg ..\..\JOCN-master\task a\images\hersey_milk_chocolate.jpg,3,1.08399234276,..\..\JOCN-master\task a\images\skinny_pop_popcorn.jpg,1.82223840393,6,6,2.19457849659,0,1
6,1.0,2,..\..\JOCN-master\task a\images\wheat_thins.jpg ..\..\JOCN-master\task a\images\pringles_cheddar_potato crisps.jpg,2,1.10890167623,..\..\JOCN-master\task a\images\pringles_cheddar_potato crisps.jpg,1.47376259734,6,5,2.97515722646,0,2
6,1.25,2,..\..\JOCN-master\task a\images\hersey_milk_chocolate.jpg ..\..\JOCN-master\task a\images\cheez-it_white_cheddar.JPG,2,2.37370599297,..\..\JOCN-master\task a\images\cheez-it_white_cheddar.JPG,1.08048059666,3,6,3.04955128953,0,2
1,0.5,6,..\..\JOCN-master\task a\images\m&m's_milk_chocholate.jpg ..\..\JOCN-master\task a\images\quaker_chewy_chocolate chip.jpg ..\..\JOCN-master\task a\images\kettle_salt_pepper.jpg ..\..\JOCN-master\task a\images\fiber one_oats and choc_chewy bar.jpg ..\..\JOCN-master\task a\images\m&m's_peanut.jpg ..\..\JOCN-master\task a\images\hersey_milk_chocolate.jpg,6,1.33265275357,..\..\JOCN-master\task a\images\quaker_chewy_chocolate chip.jpg,3.44872753957,3,5,3.84044964914,0,1
1,0.75,2,..\..\JOCN-master\task a\images\3 musketeers_candy bar.jpg ..\..\JOCN-master\task a\images\kind bar_peanut butter_bar.jpg,2,0.994344114733,..\..\JOCN-master\task a\images\3 musketeers_candy bar.jpg,1.24938915644,4,5,3.12456885396,0,1
5,0.5,3,..\..\JOCN-master\task a\images\3 musketeers_candy bar.jpg ..\..\JOCN-master\task a\images\planters_salted_peanuts.jpg ..\..\JOCN-master\task a\images\cheez itz_original.jpg,3,1.36655051867,..\..\JOCN-master\task a\images\3 musketeers_candy bar.jpg,1.43136052429,4,5,3.26139497047,0,2
6,1.25,3,..\..\JOCN-master\task a\images\grandmas_chocolate chip_cookies.jpg ..\..\JOCN-master\task a\images\cliff_chocolate chip_bar.jpg ..\..\JOCN-master\task a\images\keebler_chips_deluxe.jpg,3,1.22488714682,..\..\JOCN-master\task a\images\keebler_chips_deluxe.jpg,2.15603519141,3,5,2.65570381412,0,2
8,0.75,12,..\..\JOCN-master\task a\images\sunchips_harvest cheddar_chips.jpg ..\..\JOCN-master\task a\images\cheez itz_original.jpg ..\..\JOCN-master\task a\images\doritos_cool ranch_chips.jpg ..\..\JOCN-master\task a\images\pringles_cheddar_potato crisps.jpg ..\..\JOCN-master\task a\images\sourpatch_watermelon_candy.jpg ..\..\JOCN-master\task a\images\baked_cheetos_crunchy.jpg ..\..\JOCN-master\task a\images\pirates booty_aged white cheddar_ corn puffs.jpg ..\..\JOCN-master\task a\images\starburst_orignal_candy.jpg ..\..\JOCN-master\task a\images\hersey_milk_chocolate.jpg ..\..\JOCN-master\task a\images\kettle_original.jpg ..\..\JOCN-master\task a\images\cliff_chocolate chip_bar.jpg ..\..\JOCN-master\task a\images\planters_salted_peanuts.jpg,12,5.68889663555e-06,..\..\JOCN-master\task a\images\sunchips_harvest cheddar_chips.jpg,8.53330129758e-06,n/a,n/a,,1,2
5,1.25,2,..\..\JOCN-master\task a\images\cheez itz_original.jpg ..\..\JOCN-master\task a\images\hersey_milk_chocolate.jpg,2,1.10049009707,..\..\JOCN-master\task a\images\cheez itz_original.jpg,0.965499213518,5,6,2.27870452809,0,2
2,0.5,3,..\..\JOCN-master\task a\images\garden_veggie straws_zesty ranch.jpg ..\..\JOCN-master\task a\images\fiber one_oats and choc_chewy bar.jpg ..\..\JOCN-master\task a\images\poptarts_strawberry_frosted.jpg,3,1.1840114005,..\..\JOCN-master\task a\images\garden_veggie straws_zesty ranch.jpg,1.19882183278,7,7,1.93209638103,0,1
2,1.75,2,..\..\JOCN-master\task a\images\snickers_milk chocolate_candy bar.jpg ..\..\JOCN-master\task a\images\poptarts_brown_sugar.jpg,2,1.26226935143,..\..\JOCN-master\task a\images\snickers_milk chocolate_candy bar.jpg,1.34165085631,5,6,2.5007364256,0,1
5,0.5,3,..\..\JOCN-master\task a\images\cliff_chocolate chip_bar.jpg ..\..\JOCN-master\task a\images\lays_classic_potato chips.jpg ..\..\JOCN-master\task a\images\skittles_sour_candy.jpg,3,0.867205593298,..\..\JOCN-master\task a\images\lays_classic_potato chips.jpg,1.97303641168,5,5,2.99320008079,0,2
2,1.25,2,..\..\JOCN-master\task a\images\nestle_butterfinger_bar.jpg ..\..\JOCN-master\task a\images\nuture valley_crunchy_bar.jpg,2,0.960371825233,..\..\JOCN-master\task a\images\nestle_butterfinger_bar.jpg,1.74055745342,4,4,3.12906193201,0,1
