Trial Type, Money Option, Item Option, Trial Options, Choice 1, Choice 1 RT, Choice 2, Choice 2 RT, Decision Rating , Selected Option Rating, PostChoiceRT, Computer Response, Choosing For
8,1.0,3,..\..\JOCN-master\task a\images\garden_veggie straws_zesty ranch.jpg ..\..\JOCN-master\task a\images\jacklinks_beef_stick.jpg ..\..\JOCN-master\task a\images\popchips_ridges_perfectly_salted.jpg,3,7.39554525353e-06,..\..\JOCN-master\task a\images\popchips_ridges_perfectly_salted.jpg,1.30844418891e-05,n/a,n/a,,1,2
8,1.25,2,..\..\JOCN-master\task a\images\sun chips_french onion_chips.jpg ..\..\JOCN-master\task a\images\stonyfield_fruit snacks.jpg,2,5.11997495778e-06,..\..\JOCN-master\task a\images\stonyfield_fruit snacks.jpg,9.67111554928e-06,n/a,n/a,,1,2
5,1.25,6,1.5 1.25,1.25,1.54695237774,$1.5,2.78267085293,3,5,n/a,1,2
7,0.75,3,..\..\JOCN-master\task a\images\kellogg's_rice krispies_orignal.jpg ..\..\JOCN-master\task a\images\baked_ruffles_cheddar &sour.JPG ..\..\JOCN-master\task a\images\this_popcorn_is_awesome_olive_oil.jpg,3,5.68886753172e-06,..\..\JOCN-master\task a\images\kellogg's_rice krispies_orignal.jpg,9.10222297534e-06,n/a,n/a,,1,2
4,1.25,3,..\..\JOCN-master\task a\images\stonyfield_fruit snacks.jpg ..\..\JOCN-master\task a\images\quaker_chewy_dark choc chunk.jpg ..\..\JOCN-master\task a\images\m&m's_peanut_butter.jpg,3,5.68889663555e-06,..\..\JOCN-master\task a\images\quaker_chewy_dark choc chunk.jpg,9.67111554928e-06,n/a,n/a,,1,1
5,0.75,3,..\..\JOCN-master\task a\images\planters_salted_peanuts.jpg ..\..\JOCN-master\task a\images\snickers_almond_bar.jpg ..\..\JOCN-master\task a\images\sourpatch_watermelon_candy.jpg,3,1.22879509936,..\..\JOCN-master\task a\images\sourpatch_watermelon_candy.jpg,1.5640793418,5,1,n/a,1,2
7,1.5,6,1.75 1.0 1.25 1.5 0.5 0.75,1.5,5.68889663555e-06,$1.5,5.12000406161e-06,n/a,n/a,,1,2
1,0.5,6,..\..\JOCN-master\task a\images\garden_veggie straws_cheddar.jpg ..\..\JOCN-master\task a\images\twix_milk chocolate_cookie bars.jpg ..\..\JOCN-master\task a\images\cliff_chocolate chip_bar.jpg ..\..\JOCN-master\task a\images\starburst_orignal_candy.jpg ..\..\JOCN-master\task a\images\quaker_chewy_chocolate chip.jpg ..\..\JOCN-master\task a\images\kettle_bbq.jpg,6,1.81272865771,..\..\JOCN-master\task a\images\kettle_bbq.jpg,1.61138699055,1,5,n/a,1,1
1,0.5,6,..\..\JOCN-master\task a\images\lance_captain_wafers_with_honey_and_pb.JPG ..\..\JOCN-master\task a\images\nestle_crunch_bar.jpg ..\..\JOCN-master\task a\images\kitkat_crisp wafers_milk choc.jpg ..\..\JOCN-master\task a\images\famous_amos_chocolate_chip.jpg ..\..\JOCN-master\task a\images\belvita_blueberry.JPG ..\..\JOCN-master\task a\images\emerald_natural_almonds.jpg,6,1.80618814402,..\..\JOCN-master\task a\images\belvita_blueberry.JPG,1.76785869713,3,7,n/a,1,1
8,1.5,2,0.5 1.75 1.5,1.5,5.68886753172e-06,$0.5,4.55111148767e-06,n/a,n/a,,1,2
7,1.75,6,1.75 1.25,1.75,5.68889663555e-06,$1.75,5.12000406161e-06,n/a,n/a,,1,2
6,0.75,6,..\..\JOCN-master\task a\images\this_popcorn_is_awesome_popcorn.jpg ..\..\JOCN-master\task a\images\grandma's_peanut butter_cookies.jpg ..\..\JOCN-master\task a\images\nature_valley_sweet_and_salty.jpg ..\..\JOCN-master\task a\images\starburst_favereds_candy.jpg ..\..\JOCN-master\task a\images\stonyfield_fruit snacks.jpg ..\..\JOCN-master\task a\images\nestle_babyruth_bar.jpg,6,2.12919235436,..\..\JOCN-master\task a\images\nature_valley_sweet_and_salty.jpg,n/a,6,3,n/a,1,2
4,0.75,3,..\..\JOCN-master\task a\images\belvita_banana_bread.jpg ..\..\JOCN-master\task a\images\planters_salted_cashews.jpg ..\..\JOCN-master\task a\images\oreo_thin_crisps.jpg,3,5.68889663555e-06,..\..\JOCN-master\task a\images\belvita_banana_bread.jpg,1.3653334463e-05,n/a,n/a,,1,1
4,0.5,3,0.5 1.75,0.5,4.55111148767e-06,$1.75,5.68889663555e-06,n/a,n/a,,1,1
5,1.75,12,1.0 1.75 0.5 1.25,1.75,1.07894923975,$1.75,1.23243769389,6,6,2.72993316126,0,2
6,1.5,12,0.75 1.25 1.5 1.75 1.0 0.5,1.5,1.72955655694,$1.75,2.18273104136,6,6,2.29681029782,0,2
1,1.25,12,..\..\JOCN-master\task a\images\pringles_the original_potato crisps.jpg ..\..\JOCN-master\task a\images\nabisco_mini_ritz.jpg ..\..\JOCN-master\task a\images\pirates booty_aged white cheddar_ corn puffs.jpg ..\..\JOCN-master\task a\images\kettle_jalepeno.jpg ..\..\JOCN-master\task a\images\cliff_chocolate chip_bar.jpg ..\..\JOCN-master\task a\images\kettle_salt_pepper.jpg ..\..\JOCN-master\task a\images\quaker_chewy_peanut butter choc chip.jpg ..\..\JOCN-master\task a\images\this_popcorn_is_awesome_popcorn.jpg ..\..\JOCN-master\task a\images\kind bar_peanut butter_bar.jpg ..\..\JOCN-master\task a\images\kind_dark_chocolate.jpg ..\..\JOCN-master\task a\images\kellogg's_rice krispies_orignal.jpg ..\..\JOCN-master\task a\images\jacklinks_small_batch.jpg,12,1.04494676055,..\..\JOCN-master\task a\images\quaker_chewy_peanut butter choc chip.jpg,1.33966241006,7,7,1.75941297511,0,1
7,0.75,2,..\..\JOCN-master\task a\images\oreo_thin_crisps.jpg ..\..\JOCN-master\task a\images\keebler_fudge_stripes.jpg,2,5.11997495778e-06,..\..\JOCN-master\task a\images\keebler_fudge_stripes.jpg,9.10222297534e-06,n/a,n/a,,1,2
1,0.75,3,..\..\JOCN-master\task a\images\jacklinks_beef_stick.jpg ..\..\JOCN-master\task a\images\hersey_milk_chocolate.jpg ..\..\JOCN-master\task a\images\belvita_blueberry.JPG,3,1.70661896345,..\..\JOCN-master\task a\images\belvita_blueberry.JPG,1.66613513496,5,7,2.66205847834,0,1
5,1.75,12,..\..\JOCN-master\task a\images\belvita_banana_bread.jpg ..\..\JOCN-master\task a\images\austin_lemon ohs_lemon cookies.jpg ..\..\JOCN-master\task a\images\m&m's_milk_chocholate.jpg ..\..\JOCN-master\task a\images\snickers_almond_bar.jpg ..\..\JOCN-master\task a\images\snickers_milk chocolate_candy bar.jpg ..\..\JOCN-master\task a\images\sun chips_garden salsa_chips.jpg ..\..\JOCN-master\task a\images\pringles_the original_potato crisps.jpg ..\..\JOCN-master\task a\images\mini_fudge_stripes.jpg ..\..\JOCN-master\task a\images\quaker_chewy_dark choc chunk.jpg ..\..\JOCN-master\task a\images\popchips_sea_salt.jpg ..\..\JOCN-master\task a\images\kettle_jalepeno.jpg ..\..\JOCN-master\task a\images\starburst_verry berry_candy.jpg,12,1.07828022662,..\..\JOCN-master\task a\images\quaker_chewy_dark choc chunk.jpg,1.34734070121,7,7,1.48050162333,0,2
1,1.75,6,..\..\JOCN-master\task a\images\hersheys_milk choc_almond.jpg ..\..\JOCN-master\task a\images\welch's_tropical_fruits.jpg ..\..\JOCN-master\task a\images\pringles_cheddar_potato crisps.jpg ..\..\JOCN-master\task a\images\grandmas_chocolate chip_cookies.jpg ..\..\JOCN-master\task a\images\kettle_bbq.jpg ..\..\JOCN-master\task a\images\doritos_cool ranch_chips.jpg,6,1.44742188163,..\..\JOCN-master\task a\images\kettle_bbq.jpg,1.59934077173,6,7,2.61434350524,0,1
2,1.0,12,..\..\JOCN-master\task a\images\cliff_chocolate chip_bar.jpg ..\..\JOCN-master\task a\images\snickers_almond_bar.jpg ..\..\JOCN-master\task a\images\ct_crunch_cereal_bar.jpg ..\..\JOCN-master\task a\images\cheez itz_original.jpg ..\..\JOCN-master\task a\images\nestle_babyruth_bar.jpg ..\..\JOCN-master\task a\images\planters_honey roasted_peanuts.jpg ..\..\JOCN-master\task a\images\brookside_fruit and nut_bar.jpg ..\..\JOCN-master\task a\images\sun chips_french onion_chips.jpg ..\..\JOCN-master\task a\images\m&m's_milk_chocholate.jpg ..\..\JOCN-master\task a\images\kettle_salt_pepper.jpg ..\..\JOCN-master\task a\images\pepperidge farms-goldish-cheddar.jpg ..\..\JOCN-master\task a\images\nabisco_chips ahhoy_mini.jpg,12,1.29504560499,..\..\JOCN-master\task a\images\ct_crunch_cereal_bar.jpg,2.5053353229,4,6,3.43280997468,0,1
3,1.0,2,1.0 1.5,1.0,5.68886753172e-06,$1.5,4.55111148767e-06,n/a,n/a,,1,1
1,1.25,3,1.75 1.25 0.75,1.25,1.49643847212,$1.75,2.88317926877,6,7,3.99358976181,0,1
5,1.75,6,1.5 0.5 1.0 1.75,1.75,2.06460300385,$1.0,1.93235628592,2,2,n/a,1,2
2,1.0,2,0.75 1.5 0.5 1.75 1.0 1.25,1.0,2.20488527507,$1.5,1.43256193917,5,6,2.845662195,0,1
4,1.0,3,..\..\JOCN-master\task a\images\austin_choco creme_choc cookies.jpg ..\..\JOCN-master\task a\images\kar's_sweet'n spicy_mix.jpg ..\..\JOCN-master\task a\images\popchips_sea_salt.jpg,3,5.68889663555e-06,..\..\JOCN-master\task a\images\popchips_sea_salt.jpg,1.02400081232e-05,n/a,n/a,,1,1
5,1.5,3,1.25 1.5 1.75 0.5,1.5,1.2101520469,$1.75,1.91545403295,6,7,2.92678231417,0,2
6,0.75,2,..\..\JOCN-master\task a\images\sourpatch_watermelon_candy.jpg ..\..\JOCN-master\task a\images\garden_veggie straws_zesty ranch.jpg,2,2.39721062477,..\..\JOCN-master\task a\images\sourpatch_watermelon_candy.jpg,0.984567755513,7,7,2.99724487189,0,2
2,1.75,12,0.5 1.75 1.0,1.75,2.08057171039,$1.75,1.05012819907,5,3,n/a,1,1
1,0.75,12,..\..\JOCN-master\task a\images\skittles_original_candy.jpg ..\..\JOCN-master\task a\images\welch's_tropical_fruits.jpg ..\..\JOCN-master\task a\images\sun chips_garden salsa_chips.jpg ..\..\JOCN-master\task a\images\kind_almond_butter.jpg ..\..\JOCN-master\task a\images\ct_crunch_cereal_bar.jpg ..\..\JOCN-master\task a\images\kettle_salt_pepper.jpg ..\..\JOCN-master\task a\images\famous_amos_chocolate_chip.jpg ..\..\JOCN-master\task a\images\kind bar_peanut butter_bar.jpg ..\..\JOCN-master\task a\images\reeses_peanut butter cups_milk choc.jpg ..\..\JOCN-master\task a\images\hersheys_milk choc_almond.jpg ..\..\JOCN-master\task a\images\belvita_blueberry.JPG ..\..\JOCN-master\task a\images\lance_captain_wafers_with_honey_and_pb.JPG,12,1.71978020415,..\..\JOCN-master\task a\images\skittles_original_candy.jpg,1.48469547101,6,7,2.71526834765,0,1
6,0.75,3,1.25 0.75,0.75,1.51325652958,$1.25,2.16612005941,6,7,3.19845228133,0,2
4,0.5,12,1.0 1.75 0.5,0.5,5.68889663555e-06,$1.0,5.68889663555e-06,n/a,n/a,,1,1
6,1.25,2,0.5 1.75 1.0 1.5 1.25 0.75,1.25,1.27965887156,$1.75,1.61684490897,7,7,3.14425482118,0,2
1,0.75,2,..\..\JOCN-master\task a\images\pringles_cheddar_potato crisps.jpg ..\..\JOCN-master\task a\images\pepperidge farms-goldish-cheddar.jpg,2,1.46334166374,..\..\JOCN-master\task a\images\pringles_cheddar_potato crisps.jpg,1.68353630335,4,5,3.32452940103,0,1
1,0.75,3,1.75 0.75,0.75,1.47862201498,$1.75,1.20038365855,7,7,2.89920770866,0,1
5,1.25,6,1.25 1.5 1.75,1.25,1.41397691338,$1.5,1.83279222532,5,5,2.91424969552,0,2
1,1.0,2,0.5 0.75 1.25 1.0 1.5 1.75,1.0,1.89797890902,$1.75,1.79978245695,7,7,2.73196807623,0,1
6,0.75,3,..\..\JOCN-master\task a\images\ct_crunch_cereal_bar.jpg ..\..\JOCN-master\task a\images\garden_veggie straws_cheddar.jpg ..\..\JOCN-master\task a\images\welch's_tropical_fruits.jpg,3,1.4642120635,..\..\JOCN-master\task a\images\welch's_tropical_fruits.jpg,1.62227210743,6,7,2.24851847152,0,2
2,1.0,12,0.75 1.25 0.5 1.5 1.0 1.75,1.0,1.46199339748,$1.75,1.18396382322,6,6,3.1950685312,0,1
4,1.25,6,..\..\JOCN-master\task a\images\planters_salted_peanuts.jpg ..\..\JOCN-master\task a\images\boulder_kettle_sea_salt.jpg ..\..\JOCN-master\task a\images\nestle_butterfinger_cups.jpg ..\..\JOCN-master\task a\images\this_popcorn_is_awesome_popcorn.jpg ..\..\JOCN-master\task a\images\twix_milk chocolate_cookie bars.jpg ..\..\JOCN-master\task a\images\snickers_milk chocolate_candy bar.jpg,6,5.68886753172e-06,..\..\JOCN-master\task a\images\boulder_kettle_sea_salt.jpg,8.53333040141e-06,n/a,n/a,,1,1
2,1.25,12,1.75 1.25,1.25,1.42949619782,$1.75,1.21699236493,7,7,2.07983784395,0,1
8,0.75,2,0.5 1.75 1.0 1.25 0.75 1.5,0.75,5.12000406161e-06,$1.25,6.82665267959e-06,n/a,n/a,,1,2
6,0.75,6,..\..\JOCN-master\task a\images\belvita_blueberry.JPG ..\..\JOCN-master\task a\images\nutrigrain_apple cinnamon_bar.jpg ..\..\JOCN-master\task a\images\keebler_chips delux_cookies_crackers.jpg ..\..\JOCN-master\task a\images\lays_kc masterpiece_barbecue chips.jpg ..\..\JOCN-master\task a\images\teddy_grahams_chocolate.jpg ..\..\JOCN-master\task a\images\keebler_fudge_stripes.jpg,6,1.6969774373,..\..\JOCN-master\task a\images\lays_kc masterpiece_barbecue chips.jpg,1.11956049933,6,7,1.97719893983,0,2
4,0.75,12,..\..\JOCN-master\task a\images\ct_crunch_cereal_bar.jpg ..\..\JOCN-master\task a\images\sun chips_garden salsa_chips.jpg ..\..\JOCN-master\task a\images\snickers_almond_bar.jpg ..\..\JOCN-master\task a\images\lays_kc masterpiece_barbecue chips.jpg ..\..\JOCN-master\task a\images\kars_raisin_almond_cashew_mix.jpg ..\..\JOCN-master\task a\images\nabisco_oreo_mini.jpg ..\..\JOCN-master\task a\images\poptarts_strawberry_frosted.jpg ..\..\JOCN-master\task a\images\popchips_sour_cream_and_onion.jpg ..\..\JOCN-master\task a\images\twix_milk chocolate_cookie bars.jpg ..\..\JOCN-master\task a\images\belvita_blueberry.JPG ..\..\JOCN-master\task a\images\pringles_cheddar_potato crisps.jpg ..\..\JOCN-master\task a\images\stonyfield_fruit_snacks.jpg,12,5.68886753172e-06,..\..\JOCN-master\task a\images\snickers_almond_bar.jpg,1.42221979331e-05,n/a,n/a,,1,1
3,1.5,2,0.5 1.5 0.75,1.5,5.12000406161e-06,$1.5,5.12000406161e-06,n/a,n/a,,1,1
1,1.0,12,..\..\JOCN-master\task a\images\popchips_barbeque.jpg ..\..\JOCN-master\task a\images\hersey_milk_chocolate.jpg ..\..\JOCN-master\task a\images\stonyfield_fruit snacks.jpg ..\..\JOCN-master\task a\images\baked_lays_barbeque.jpg ..\..\JOCN-master\task a\images\kind_almond_butter.jpg ..\..\JOCN-master\task a\images\haribo_gold_bears.jpg ..\..\JOCN-master\task a\images\pepperidge farms-goldish-cheddar.jpg ..\..\JOCN-master\task a\images\kettle_salt_vinegar.jpg ..\..\JOCN-master\task a\images\pirates booty_aged white cheddar_ corn puffs.jpg ..\..\JOCN-master\task a\images\nuture valley_crunchy_bar.jpg ..\..\JOCN-master\task a\images\kettle_salt_pepper.jpg ..\..\JOCN-master\task a\images\quaker_chewy_peanut butter choc chip.jpg,12,n/a,..\..\JOCN-master\task a\images\pirates booty_aged white cheddar_ corn puffs.jpg,n/a,1,4,n/a,1,1
1,1.25,2,1.75 1.25,1.25,1.80583258855,$1.75,0.982655151602,6,6,3.22654116224,0,1
1,1.25,2,1.75 1.25 1.5 1.0,1.25,1.21313586825,$1.75,1.23266752495,6,6,2.11299324787,0,1
6,1.5,6,..\..\JOCN-master\task a\images\haribo_gold_bears.jpg ..\..\JOCN-master\task a\images\wheat_thins.jpg ..\..\JOCN-master\task a\images\nabisco_ritz bits_cookies.jpg ..\..\JOCN-master\task a\images\kind_dark_chocolate.jpg ..\..\JOCN-master\task a\images\nutrigrain_apple cinnamon_bar.jpg ..\..\JOCN-master\task a\images\welch's_mixed fruit_fruit snacks.jpg,6,1.79820037738,..\..\JOCN-master\task a\images\welch's_mixed fruit_fruit snacks.jpg,1.57370550794,7,7,2.55457093558,0,2
5,1.5,12,1.0 0.75 1.5 0.5,1.5,1.22998976568,$1.5,2.39842861556,5,6,2.24928817799,0,2
2,1.5,6,1.5 0.5 1.0 0.75,1.5,1.31212193787,$1.5,2.49903203582,5,5,3.8150707726,0,1
3,1.0,3,..\..\JOCN-master\task a\images\popchips_barbeque.jpg ..\..\JOCN-master\task a\images\belvita_golden_oats.JPG ..\..\JOCN-master\task a\images\welch's_white_grape_raspberry.jpg,3,5.68886753172e-06,..\..\JOCN-master\task a\images\belvita_golden_oats.JPG,2.16177722905e-05,n/a,n/a,,1,1
8,0.75,12,..\..\JOCN-master\task a\images\m&m's_peanut.jpg ..\..\JOCN-master\task a\images\stonyfield_fruit snacks.jpg ..\..\JOCN-master\task a\images\nestle_babyruth_bar.jpg ..\..\JOCN-master\task a\images\cheez itz_original.jpg ..\..\JOCN-master\task a\images\sourpatch_watermelon_candy.jpg ..\..\JOCN-master\task a\images\nabisco_ritz bits_cookies.jpg ..\..\JOCN-master\task a\images\nutrigrain_apple cinnamon_bar.jpg ..\..\JOCN-master\task a\images\nature_valley_sweet_and_salty.jpg ..\..\JOCN-master\task a\images\oreo_thin_crisps.jpg ..\..\JOCN-master\task a\images\pepperidge farms-goldish-cheddar.jpg ..\..\JOCN-master\task a\images\welch's_berry.jpg ..\..\JOCN-master\task a\images\kind_almond_butter.jpg,12,5.12000406161e-06,..\..\JOCN-master\task a\images\oreo_thin_crisps.jpg,7.39554525353e-06,n/a,n/a,,1,2
8,1.0,12,1.0 1.5,1.0,5.12000406161e-06,$1.0,4.55111148767e-06,n/a,n/a,,1,2
6,1.75,3,1.5 0.5 1.75,1.75,1.79400539192,$1.75,0.916053072782,7,5,2.07656616488,0,2
8,1.0,2,1.25 0.5 1.5 1.75 0.75 1.0,1.0,5.68889663555e-06,$1.75,4.55111148767e-06,n/a,n/a,,1,2
1,0.5,6,..\..\JOCN-master\task a\images\kettle_bbq.jpg ..\..\JOCN-master\task a\images\poptarts_brown_sugar.jpg ..\..\JOCN-master\task a\images\popchips_barbeque.jpg ..\..\JOCN-master\task a\images\skittles_sour_candy.jpg ..\..\JOCN-master\task a\images\welch's_white_grape_raspberry.jpg ..\..\JOCN-master\task a\images\belvita_blueberry.JPG,6,1.58305746972,..\..\JOCN-master\task a\images\skittles_sour_candy.jpg,1.13636774788,6,6,3.24632824992,0,1
6,1.25,3,1.25 1.0,1.25,2.41275607815,$1.25,3.03261097739,6,6,2.96399105026,0,2
6,1.25,12,1.25 1.5 1.75,1.25,3.09649945699,$1.75,1.05001726578,6,7,2.33097377254,0,2
4,0.5,2,1.0 0.5 1.75,0.5,5.68889663555e-06,$1.75,5.12000406161e-06,n/a,n/a,,1,1
2,1.75,2,1.0 1.75,1.75,1.02919935167,$1.75,1.06641889666,6,6,2.55999244514,0,1
8,1.5,3,1.5 1.75,1.5,5.68889663555e-06,$1.5,5.12000406161e-06,n/a,n/a,,1,2
5,1.5,2,1.5 1.0 0.5 0.75,1.5,1.83084947034,$1.5,1.98257436938,6,6,3.66233950938,0,2
5,1.75,3,0.5 0.75 1.75 1.5,1.75,0.912360984919,$1.75,0.833566482906,6,7,3.29829339069,0,2
2,1.0,6,1.0 0.75,1.0,2.61406019868,$1.0,2.43391760101,5,4,3.08269025202,0,1
6,1.0,3,1.75 0.75 1.5 1.0 0.5 1.25,1.0,2.01155981893,$1.75,0.783903634787,6,7,3.54798149748,0,2
2,1.25,6,..\..\JOCN-master\task a\images\m&m's_peanut_butter.jpg ..\..\JOCN-master\task a\images\cheez itz_original.jpg ..\..\JOCN-master\task a\images\jacklinks_beef_stick.jpg ..\..\JOCN-master\task a\images\cheetos_crunchy_chips.jpg ..\..\JOCN-master\task a\images\nestle_crunch_bar.jpg ..\..\JOCN-master\task a\images\pringles_cheddar_potato crisps.jpg,6,2.51464348027,..\..\JOCN-master\task a\images\pringles_cheddar_potato crisps.jpg,3.25192611499,4,4,4.26103971244,0,1
2,1.75,2,0.5 1.25 1.75 0.75 1.0 1.5,1.75,0.915115544136,$1.75,1.13273311782,4,4,4.43079212634,0,1
1,1.5,6,1.5 1.0 0.75,1.5,1.21135922876,$1.5,2.93180332609,5,6,2.71508288992,0,1
6,1.75,2,0.5 0.75 1.25 1.75,1.75,2.26153919671,$1.75,2.84896402518,5,7,3.41255014043,0,2
3,0.5,2,0.5 1.0,0.5,5.68886753172e-06,$0.5,4.55111148767e-06,n/a,n/a,,1,1
5,1.0,12,0.5 1.0 1.5,1.0,1.13181322475,$1.5,1.88325891321,5,6,2.44293903845,0,2
2,0.75,3,..\..\JOCN-master\task a\images\pepperidge farms-goldish-cheddar.jpg ..\..\JOCN-master\task a\images\skittles_wild berry_candy.jpg ..\..\JOCN-master\task a\images\nestle_crunch_bar.jpg,3,1.63195686913,..\..\JOCN-master\task a\images\skittles_wild berry_candy.jpg,1.42186796889,5,6,2.78250189297,0,1
2,1.25,2,0.5 1.25,1.25,1.41231291383,$1.25,2.50013795553,5,5,3.51211249435,0,1
1,1.75,2,1.0 1.5 1.75 0.5,1.75,1.84545739507,$1.75,1.99997440001,6,7,3.2312003609,0,1
5,1.25,6,0.75 1.25 1.0 0.5,1.25,1.7961603424,$1.25,2.09898663851,5,5,3.03157559989,0,2
5,0.5,2,..\..\JOCN-master\task a\images\kettle_bbq.jpg ..\..\JOCN-master\task a\images\pirates booty_aged white cheddar_ corn puffs.jpg,2,1.51391814716,..\..\JOCN-master\task a\images\kettle_bbq.jpg,1.53504838116,5,6,3.31459774161,0,2
5,0.5,12,..\..\JOCN-master\task a\images\pirates booty_aged white cheddar_ corn puffs.jpg ..\..\JOCN-master\task a\images\grandma's_peanut butter_cookies.jpg ..\..\JOCN-master\task a\images\jacklinks_beef_jerky_original.jpg ..\..\JOCN-master\task a\images\sun chips_original_chips.jpg ..\..\JOCN-master\task a\images\kettle_salt_pepper.jpg ..\..\JOCN-master\task a\images\sun chips_french onion_chips.jpg ..\..\JOCN-master\task a\images\austin_cheddar cheese_cheese cracker.jpg ..\..\JOCN-master\task a\images\baked_lays_sour cream and onion.jpg ..\..\JOCN-master\task a\images\teddy_grahams_chocolate.jpg ..\..\JOCN-master\task a\images\nabisco_chips ahhoy_mini.jpg ..\..\JOCN-master\task a\images\nutrigrain_strawberry_bar.jpg ..\..\JOCN-master\task a\images\pepperidge farms-goldish-cheddar.jpg,12,1.36373379876,..\..\JOCN-master\task a\images\sun chips_french onion_chips.jpg,3.23282681379,4,5,4.01261340085,0,2
8,0.5,2,..\..\JOCN-master\task a\images\starburst_verry berry_candy.jpg ..\..\JOCN-master\task a\images\boulder_kettle_hickory_bbq.jpg,2,6.82668178342e-06,..\..\JOCN-master\task a\images\starburst_verry berry_candy.jpg,1.13777641673e-05,n/a,n/a,,1,2
8,0.5,6,..\..\JOCN-master\task a\images\garden_veggie straws_zesty ranch.jpg ..\..\JOCN-master\task a\images\m&m's_peanut.jpg ..\..\JOCN-master\task a\images\belvita_banana_bread.jpg ..\..\JOCN-master\task a\images\mini_cheese_nips.jpg ..\..\JOCN-master\task a\images\this_popcorn_is_awesome_olive_oil.jpg ..\..\JOCN-master\task a\images\cheez itz_original.jpg,6,5.12000406161e-06,..\..\JOCN-master\task a\images\this_popcorn_is_awesome_olive_oil.jpg,1.30844418891e-05,n/a,n/a,,1,2
3,0.75,2,..\..\JOCN-master\task a\images\keebler_cheese_and_peanut_butter.jpg ..\..\JOCN-master\task a\images\baked_lays_sour cream and onion.jpg,2,5.68889663555e-06,..\..\JOCN-master\task a\images\keebler_cheese_and_peanut_butter.jpg,7.39554525353e-06,n/a,n/a,,1,1
6,1.5,6,..\..\JOCN-master\task a\images\3 musketeers_candy bar.jpg ..\..\JOCN-master\task a\images\nutrigrain_strawberry_bar.jpg ..\..\JOCN-master\task a\images\famous_amos_chocolate_chip.jpg ..\..\JOCN-master\task a\images\skittles_wild berry_candy.jpg ..\..\JOCN-master\task a\images\kars_raisin_almond_cashew_mix.jpg ..\..\JOCN-master\task a\images\popchips_sour_cream_and_onion.jpg,6,2.7272872598,..\..\JOCN-master\task a\images\skittles_wild berry_candy.jpg,3.97060267502,5,6,3.44475550015,0,2
2,1.0,6,1.0 0.75 0.5 1.75,1.0,1.44851869909,$1.75,1.46657693395,6,7,2.14659864275,0,1
5,1.0,3,1.5 1.0 0.5 1.75,1.0,0.999362844654,$1.75,1.35021245148,6,7,1.89639455391,0,2
6,1.5,12,..\..\JOCN-master\task a\images\pringles_sour cream and onion_potato crisps.jpg ..\..\JOCN-master\task a\images\baked_ruffles_cheddar &sour.JPG ..\..\JOCN-master\task a\images\chex mix_original_traditional.jpg ..\..\JOCN-master\task a\images\skittles_original_candy.jpg ..\..\JOCN-master\task a\images\austin_peanut_butter.jpg ..\..\JOCN-master\task a\images\milkyway_orginal_candy.jpg ..\..\JOCN-master\task a\images\popchips_barbeque.jpg ..\..\JOCN-master\task a\images\poptarts_brown_sugar.jpg ..\..\JOCN-master\task a\images\3 musketeers_candy bar.jpg ..\..\JOCN-master\task a\images\ct_crunch_cereal_bar.jpg ..\..\JOCN-master\task a\images\quaker_chewy_dark choc chunk.jpg ..\..\JOCN-master\task a\images\nestle_butterfinger_bar.jpg,12,1.91221136719,..\..\JOCN-master\task a\images\quaker_chewy_dark choc chunk.jpg,1.6174746688,7,7,2.3660992381,0,2
7,1.0,6,0.5 1.25 1.5 1.0 0.75 1.75,1.0,5.11997495778e-06,$1.25,4.55111148767e-06,n/a,n/a,,1,2
3,1.5,2,1.0 1.25 1.5 1.75,1.5,8.53333040141e-06,$1.75,1.1946685845e-05,n/a,n/a,,1,1
7,1.75,12,..\..\JOCN-master\task a\images\grandmas_oatmeal raisin_cookies.jpg ..\..\JOCN-master\task a\images\nutrigrain_strawberry_bar.jpg ..\..\JOCN-master\task a\images\keebler_cheese_and_peanut_butter.jpg ..\..\JOCN-master\task a\images\planters_honey roasted_peanuts.jpg ..\..\JOCN-master\task a\images\stonyfield_fruit_snacks.jpg ..\..\JOCN-master\task a\images\popchips_barbeque.jpg ..\..\JOCN-master\task a\images\emerald_natural_almonds.jpg ..\..\JOCN-master\task a\images\grandmas_chocolate chip_cookies.jpg ..\..\JOCN-master\task a\images\basils_lemon.jpg ..\..\JOCN-master\task a\images\nabisco_chips ahhoy_mini.jpg ..\..\JOCN-master\task a\images\quaker_chewy_chocolate chip.jpg ..\..\JOCN-master\task a\images\lance_captain_wafers_with_honey_and_pb.JPG,12,5.12000406161e-06,..\..\JOCN-master\task a\images\basils_lemon.jpg,1.93422310986e-05,n/a,n/a,,1,2
6,0.75,2,..\..\JOCN-master\task a\images\emerald_natural_almonds.jpg ..\..\JOCN-master\task a\images\fritos_original_corn chips.jpg,2,2.02798136094,..\..\JOCN-master\task a\images\fritos_original_corn chips.jpg,1.35310468177,1,2,2.96190265974,0,2
5,1.25,3,1.0 1.25,1.25,1.12910303884,$1.25,2.33277771866,5,6,3.49355875739,0,2
2,1.5,6,1.5 1.0 1.75 1.25 0.75 0.5,1.5,0.928668749199,$1.75,1.3823535268,6,6,3.41388816672,0,1
4,0.5,12,..\..\JOCN-master\task a\images\snickers_milk chocolate_candy bar.jpg ..\..\JOCN-master\task a\images\special_k_pastry_crisps_strawberry.jpg ..\..\JOCN-master\task a\images\popchips_ridges_perfectly_salted.jpg ..\..\JOCN-master\task a\images\kars_all_energy.jpg ..\..\JOCN-master\task a\images\quaker_chewy_dark choc chunk.jpg ..\..\JOCN-master\task a\images\cliff_chocolate chip_bar.jpg ..\..\JOCN-master\task a\images\kars_raisin_almond_cashew_mix.jpg ..\..\JOCN-master\task a\images\popchips_barbeque.jpg ..\..\JOCN-master\task a\images\austin_lemon ohs_lemon cookies.jpg ..\..\JOCN-master\task a\images\barnum's_animal_crackers.jpg ..\..\JOCN-master\task a\images\famous_amos_chocolate_chip.jpg ..\..\JOCN-master\task a\images\chex mix_original_traditional.jpg,12,5.68889663555e-06,..\..\JOCN-master\task a\images\snickers_milk chocolate_candy bar.jpg,1.59289047588e-05,n/a,n/a,,1,1
7,1.75,12,..\..\JOCN-master\task a\images\stonyfield_fruit_snacks.jpg ..\..\JOCN-master\task a\images\m&m's_peanut.jpg ..\..\JOCN-master\task a\images\planters_honey roasted_peanuts.jpg ..\..\JOCN-master\task a\images\pringles_sour cream and onion_potato crisps.jpg ..\..\JOCN-master\task a\images\wheat_thins.jpg ..\..\JOCN-master\task a\images\kettle_salt_vinegar.jpg ..\..\JOCN-master\task a\images\ct_crunch_cereal_bar.jpg ..\..\JOCN-master\task a\images\oreo_thin_crisps.jpg ..\..\JOCN-master\task a\images\nature_valley_sweet_and_salty.jpg ..\..\JOCN-master\task a\images\quaker_chewy_chocolate chip.jpg ..\..\JOCN-master\task a\images\mini_fudge_stripes.jpg ..\..\JOCN-master\task a\images\mini_cheese_nips.jpg,12,7.96443782747e-06,..\..\JOCN-master\task a\images\kettle_salt_vinegar.jpg,9.10222297534e-06,n/a,n/a,,1,2
2,0.5,3,..\..\JOCN-master\task a\images\jacklinks_beef_stick.jpg ..\..\JOCN-master\task a\images\kars_all_energy.jpg ..\..\JOCN-master\task a\images\wheat_thins.jpg,3,1.21348402815,..\..\JOCN-master\task a\images\jacklinks_beef_stick.jpg,1.64408159457,4,4,3.2489451381,0,1
2,1.5,12,0.75 1.5 1.25 1.0,1.5,1.44622721532,$1.25,3.38216408686,4,5,4.064883466,0,1
1,1.0,6,1.75 1.5 1.0 0.5 0.75 1.25,1.0,1.63012277189,$1.75,2.48273564936,6,7,1.93297011685,0,1
1,0.5,12,..\..\JOCN-master\task a\images\welch's_white_grape_raspberry.jpg ..\..\JOCN-master\task a\images\grandmas_chocolate chip_cookies.jpg ..\..\JOCN-master\task a\images\stonyfield_fruit snacks.jpg ..\..\JOCN-master\task a\images\garden_veggie straws_sea salt.jpg ..\..\JOCN-master\task a\images\sun chips_french onion_chips.jpg ..\..\JOCN-master\task a\images\baked_lays_sour cream and onion.jpg ..\..\JOCN-master\task a\images\pringles_the original_potato crisps.jpg ..\..\JOCN-master\task a\images\skittles_wild berry_candy.jpg ..\..\JOCN-master\task a\images\keebler_elfin_cookies.jpg ..\..\JOCN-master\task a\images\baked_ruffles_cheddar &sour.JPG ..\..\JOCN-master\task a\images\nabisco_mini_ritz.jpg ..\..\JOCN-master\task a\images\sourpatch_watermelon_candy.jpg,12,2.74450297045,..\..\JOCN-master\task a\images\welch's_white_grape_raspberry.jpg,3.16707749912,2,2,n/a,1,1
1,1.5,3,0.75 1.5,1.5,1.28461047905,$1.5,2.86617916697,5,6,2.53610253197,0,1
8,1.0,2,..\..\JOCN-master\task a\images\kettle_salt_vinegar.jpg ..\..\JOCN-master\task a\images\basils_lemon.jpg,2,5.68889663555e-06,..\..\JOCN-master\task a\images\kettle_salt_vinegar.jpg,2.04799871426e-05,n/a,n/a,,1,2
3,1.0,12,1.25 1.0,1.0,5.12000406161e-06,$1.25,4.55111148767e-06,n/a,n/a,,1,1
6,1.5,12,..\..\JOCN-master\task a\images\3 musketeers_candy bar.jpg ..\..\JOCN-master\task a\images\nutrigrain_apple cinnamon_bar.jpg ..\..\JOCN-master\task a\images\planters_honey roasted_peanuts.jpg ..\..\JOCN-master\task a\images\nature_valley_chewy.jpg ..\..\JOCN-master\task a\images\belvita_blueberry.JPG ..\..\JOCN-master\task a\images\famous_amos_chocolate_chip.jpg ..\..\JOCN-master\task a\images\austin_choco creme_choc cookies.jpg ..\..\JOCN-master\task a\images\pirates booty_aged white cheddar_ corn puffs.jpg ..\..\JOCN-master\task a\images\keebler_fudge_stripes.jpg ..\..\JOCN-master\task a\images\austin_lemon ohs_lemon cookies.jpg ..\..\JOCN-master\task a\images\kind bar_peanut butter_bar.jpg ..\..\JOCN-master\task a\images\cliff_chocolate chip_bar.jpg,12,1.64643224279,..\..\JOCN-master\task a\images\cliff_chocolate chip_bar.jpg,2.54505228938,5,6,2.27886470288,0,2
5,1.25,6,..\..\JOCN-master\task a\images\sun chips_garden salsa_chips.jpg ..\..\JOCN-master\task a\images\nestle_butterfinger_cups.jpg ..\..\JOCN-master\task a\images\skittles_original_candy.jpg ..\..\JOCN-master\task a\images\nature_valley_sweet_and_salty.jpg ..\..\JOCN-master\task a\images\starburst_favereds_candy.jpg ..\..\JOCN-master\task a\images\nature_valley_chewy.jpg,6,1.93123728179,..\..\JOCN-master\task a\images\skittles_original_candy.jpg,3.64748923804,6,7,4.11493202066,0,2
3,1.25,3,..\..\JOCN-master\task a\images\jacklinks_beef_steak.jpg ..\..\JOCN-master\task a\images\nabisco_chips ahhoy_mini.jpg ..\..\JOCN-master\task a\images\pepperidge farms-goldish-cheddar.jpg,3,5.68889663555e-06,..\..\JOCN-master\task a\images\pepperidge farms-goldish-cheddar.jpg,7.39557435736e-06,n/a,n/a,,1,1
3,1.25,2,..\..\JOCN-master\task a\images\belvita_banana_bread.jpg ..\..\JOCN-master\task a\images\kettle_jalepeno.jpg,2,5.12000406161e-06,..\..\JOCN-master\task a\images\belvita_banana_bread.jpg,1.4222227037e-05,n/a,n/a,,1,1
6,1.0,12,..\..\JOCN-master\task a\images\lance_toasty_with_pb.jpg ..\..\JOCN-master\task a\images\lays_classic_potato chips.jpg ..\..\JOCN-master\task a\images\skinny_pop_popcorn.jpg ..\..\JOCN-master\task a\images\cheetos_crunchy_chips.jpg ..\..\JOCN-master\task a\images\kitkat_crisp wafers_milk choc.jpg ..\..\JOCN-master\task a\images\snickers_almond_bar.jpg ..\..\JOCN-master\task a\images\starburst_orignal_candy.jpg ..\..\JOCN-master\task a\images\pepperidge farms-goldish-cheddar.jpg ..\..\JOCN-master\task a\images\nabisco_teddy graham_honey.jpg ..\..\JOCN-master\task a\images\grandmas_chocolate chip_cookies.jpg ..\..\JOCN-master\task a\images\kettle_jalepeno.jpg ..\..\JOCN-master\task a\images\austin_choco creme_choc cookies.jpg,12,1.56542647028,..\..\JOCN-master\task a\images\starburst_orignal_candy.jpg,1.57541501854,6,7,1.52456831301,0,2
6,1.0,3,1.25 1.75 0.75 1.0,1.0,2.92926153124,$1.75,2.18257516585,7,7,1.62973023867,0,2
1,1.0,12,..\..\JOCN-master\task a\images\keebler_fudge_stripes.jpg ..\..\JOCN-master\task a\images\skittles_sour_candy.jpg ..\..\JOCN-master\task a\images\lays_classic_potato chips.jpg ..\..\JOCN-master\task a\images\stonyfield_fruit_snacks.jpg ..\..\JOCN-master\task a\images\jacklinks_beef_stick.jpg ..\..\JOCN-master\task a\images\keebler_chips delux_cookies_crackers.jpg ..\..\JOCN-master\task a\images\sun chips_french onion_chips.jpg ..\..\JOCN-master\task a\images\garden_veggie straws_cheddar.jpg ..\..\JOCN-master\task a\images\starburst_verry berry_candy.jpg ..\..\JOCN-master\task a\images\kind_dark_chocolate.jpg ..\..\JOCN-master\task a\images\jacklinks_beef_jerky_original.jpg ..\..\JOCN-master\task a\images\twix_milk chocolate_cookie bars.jpg,1.0,n/a,1.0,n/a,7,6,n/a,1,1
2,1.0,12,..\..\JOCN-master\task a\images\nature valley_oats and honey_crunchy.jpg ..\..\JOCN-master\task a\images\m&m's_milk_chocholate.jpg ..\..\JOCN-master\task a\images\kettle_bbq.jpg ..\..\JOCN-master\task a\images\cheetos_crunchy_chips.jpg ..\..\JOCN-master\task a\images\pringles_sour cream and onion_potato crisps.jpg ..\..\JOCN-master\task a\images\baked_lays_barbeque.jpg ..\..\JOCN-master\task a\images\kars_all_energy.jpg ..\..\JOCN-master\task a\images\belvita_golden_oats.JPG ..\..\JOCN-master\task a\images\stonyfield_fruit snacks.jpg ..\..\JOCN-master\task a\images\nestle_babyruth_bar.jpg ..\..\JOCN-master\task a\images\special_k_cracker_chips.jpg ..\..\JOCN-master\task a\images\m&m's_peanut_butter.jpg,1.0,n/a,1.0,n/a,5,1,n/a,1,1
2,1.25,2,1.0 1.5 1.75 1.25 0.75 0.5,1.25,1.45174884927,$1.75,1.68296798351,6,7,2.81241690667,0,1
5,1.25,12,..\..\JOCN-master\task a\images\popchips_barbeque.jpg ..\..\JOCN-master\task a\images\nabisco_chips ahhoy_mini.jpg ..\..\JOCN-master\task a\images\fritos_original_corn chips.jpg ..\..\JOCN-master\task a\images\kettle_salt_vinegar.jpg ..\..\JOCN-master\task a\images\sun chips_garden salsa_chips.jpg ..\..\JOCN-master\task a\images\poptarts_strawberry_frosted.jpg ..\..\JOCN-master\task a\images\mini_fudge_stripes.jpg ..\..\JOCN-master\task a\images\this_popcorn_is_awesome_olive_oil.jpg ..\..\JOCN-master\task a\images\teddy_grahams_chocolate.jpg ..\..\JOCN-master\task a\images\sun chips_original_chips.jpg ..\..\JOCN-master\task a\images\garden_veggie straws_cheddar.jpg ..\..\JOCN-master\task a\images\popchips_ridges_perfectly_salted.jpg,12,1.66408542887,..\..\JOCN-master\task a\images\sun chips_garden salsa_chips.jpg,4.27394153987,6,6,4.17881481137,0,2
6,1.75,3,0.5 1.75,1.75,0.814426221681,$1.75,0.733182653668,6,7,2.03323789276,0,2
3,1.5,2,..\..\JOCN-master\task a\images\lays_kc masterpiece_barbecue chips.jpg ..\..\JOCN-master\task a\images\pringles_cheddar_potato crisps.jpg,2,5.68889663555e-06,..\..\JOCN-master\task a\images\lays_kc masterpiece_barbecue chips.jpg,1.02400081232e-05,n/a,n/a,,1,1
5,1.0,3,..\..\JOCN-master\task a\images\planters_honey roasted_peanuts.jpg ..\..\JOCN-master\task a\images\sun chips_french onion_chips.jpg ..\..\JOCN-master\task a\images\stonyfield_fruit_snacks.jpg,3,2.14899593985,..\..\JOCN-master\task a\images\stonyfield_fruit_snacks.jpg,1.61946577937,6,7,1.9946564282,0,2
4,1.75,12,..\..\JOCN-master\task a\images\belvita_blueberry.JPG ..\..\JOCN-master\task a\images\slim_jim.jpg ..\..\JOCN-master\task a\images\kar's_sweet'n spicy_mix.jpg ..\..\JOCN-master\task a\images\sourpatch_watermelon_candy.jpg ..\..\JOCN-master\task a\images\starburst_verry berry_candy.jpg ..\..\JOCN-master\task a\images\sourpatchkids_original_candy.jpg ..\..\JOCN-master\task a\images\kettle_bbq.jpg ..\..\JOCN-master\task a\images\nabisco_nutter butter_bites.jpg ..\..\JOCN-master\task a\images\nature_valley_sweet_and_salty.jpg ..\..\JOCN-master\task a\images\snyders_mini_pretzels.jpg ..\..\JOCN-master\task a\images\garden_veggie straws_zesty ranch.jpg ..\..\JOCN-master\task a\images\hersey_milk_chocolate.jpg,12,5.68889663555e-06,..\..\JOCN-master\task a\images\kar's_sweet'n spicy_mix.jpg,8.53333040141e-06,n/a,n/a,,1,1
2,1.75,3,0.5 1.75,1.75,0.715459494269,$1.75,0.833034003066,6,7,2.9622371663,0,1
7,1.75,6,..\..\JOCN-master\task a\images\snickers_milk chocolate_candy bar.jpg ..\..\JOCN-master\task a\images\kars_all_energy.jpg ..\..\JOCN-master\task a\images\hersey_milk_chocolate.jpg ..\..\JOCN-master\task a\images\cheez itz_original.jpg ..\..\JOCN-master\task a\images\jacklinks_small_batch.jpg ..\..\JOCN-master\task a\images\nabisco_teddy graham_honey.jpg,6,5.68889663555e-06,..\..\JOCN-master\task a\images\jacklinks_small_batch.jpg,1.02399790194e-05,n/a,n/a,,1,2
6,1.0,2,0.75 1.0 1.75 0.5,1.0,1.91257545596,$1.75,1.91469741092,6,7,2.47856910829,0,2
6,1.25,2,1.25 0.75 1.5,1.25,1.99500686364,$1.25,2.49898709363,4,6,2.24570531677,0,2
1,1.0,2,..\..\JOCN-master\task a\images\this_popcorn_is_awesome_popcorn.jpg ..\..\JOCN-master\task a\images\garden_veggie straws_sea salt.jpg,2,n/a,..\..\JOCN-master\task a\images\this_popcorn_is_awesome_popcorn.jpg,n/a,3,2,n/a,1,1
4,1.25,2,..\..\JOCN-master\task a\images\this_popcorn_is_awesome_aged_white_cheddar.jpg ..\..\JOCN-master\task a\images\teddy_grahams_chocolate.jpg,2,5.12000406161e-06,..\..\JOCN-master\task a\images\teddy_grahams_chocolate.jpg,7.39557435736e-06,n/a,n/a,,1,1
2,1.25,12,..\..\JOCN-master\task a\images\nabisco_ritz bits_cookies.jpg ..\..\JOCN-master\task a\images\keebler_fudge_stripes.jpg ..\..\JOCN-master\task a\images\kars_raisin_almond_cashew_mix.jpg ..\..\JOCN-master\task a\images\this_popcorn_is_awesome_olive_oil.jpg ..\..\JOCN-master\task a\images\austin_peanut butter_cheese cracker.jpg ..\..\JOCN-master\task a\images\reeses_peanut butter cups_milk choc.jpg ..\..\JOCN-master\task a\images\planters_honey roasted_peanuts.jpg ..\..\JOCN-master\task a\images\lays_kc masterpiece_barbecue chips.jpg ..\..\JOCN-master\task a\images\snickers_almond_bar.jpg ..\..\JOCN-master\task a\images\popchips_barbeque.jpg ..\..\JOCN-master\task a\images\kettle_original.jpg ..\..\JOCN-master\task a\images\kind bar_peanut butter_bar.jpg,12,1.53206967979,..\..\JOCN-master\task a\images\lays_kc masterpiece_barbecue chips.jpg,1.3118426135,5,6,2.07996755058,0,1
6,1.75,3,0.5 1.75 1.25 0.75 1.5 1.0,1.75,1.72762859304,$1.75,1.11620576249,6,6,2.83165672343,0,2
6,1.5,12,..\..\JOCN-master\task a\images\quaker_chewy_chocolate chip.jpg ..\..\JOCN-master\task a\images\mini_fudge_stripes.jpg ..\..\JOCN-master\task a\images\special_k_pastry_crisps_strawberry.jpg ..\..\JOCN-master\task a\images\skittles_sour_candy.jpg ..\..\JOCN-master\task a\images\planters_salted_cashews.jpg ..\..\JOCN-master\task a\images\popchips_sour_cream_and_onion.jpg ..\..\JOCN-master\task a\images\special_k_pastry_crisps_blueberry.jpg ..\..\JOCN-master\task a\images\nestle_babyruth_bar.jpg ..\..\JOCN-master\task a\images\poptarts_strawberry_frosted.jpg ..\..\JOCN-master\task a\images\kind_dark_chocolate.jpg ..\..\JOCN-master\task a\images\wheat_thins.jpg ..\..\JOCN-master\task a\images\lance_toasty_with_pb.jpg,12,2.09927620288,..\..\JOCN-master\task a\images\quaker_chewy_chocolate chip.jpg,3.59517536848,4,5,n/a,1,2
5,1.5,6,0.75 1.5 1.75 0.5,1.5,1.13885379161,$1.75,1.79866402171,6,7,2.03902519777,0,2
3,1.75,6,..\..\JOCN-master\task a\images\kettle_jalepeno.jpg ..\..\JOCN-master\task a\images\milkyway_orginal_candy.jpg ..\..\JOCN-master\task a\images\sun chips_original_chips.jpg ..\..\JOCN-master\task a\images\austin_choco creme_choc cookies.jpg ..\..\JOCN-master\task a\images\poptarts_brown_sugar.jpg ..\..\JOCN-master\task a\images\snickers_milk chocolate_candy bar.jpg,6,6.25778920949e-06,..\..\JOCN-master\task a\images\austin_choco creme_choc cookies.jpg,1.13777932711e-05,n/a,n/a,,1,1
7,1.25,3,..\..\JOCN-master\task a\images\milkyway_orginal_candy.jpg ..\..\JOCN-master\task a\images\pirates booty_aged white cheddar_ corn puffs.jpg ..\..\JOCN-master\task a\images\m&m's_milk_chocholate.jpg,3,5.12000406161e-06,..\..\JOCN-master\task a\images\milkyway_orginal_candy.jpg,2.78755323961e-05,n/a,n/a,,1,2
5,1.25,6,1.25 1.5 1.0,1.25,1.86155467047,$1.5,3.18224009039,5,6,3.20956210929,0,2
7,0.75,6,0.75 1.25 0.5,0.75,5.68889663555e-06,$0.75,4.55111148767e-06,n/a,n/a,,1,2
6,1.0,2,1.0 0.5 0.75 1.5,1.0,1.56512382146,$1.5,2.63157059369,6,6,2.30957331639,0,2
8,1.75,6,..\..\JOCN-master\task a\images\pirates booty_aged white cheddar_ corn puffs.jpg ..\..\JOCN-master\task a\images\keebler_fudge_stripes.jpg ..\..\JOCN-master\task a\images\sun chips_french onion_chips.jpg ..\..\JOCN-master\task a\images\kars_all_energy.jpg ..\..\JOCN-master\task a\images\this_popcorn_is_awesome_popcorn.jpg ..\..\JOCN-master\task a\images\kettle_salt_pepper.jpg,6,5.68886753172e-06,..\..\JOCN-master\task a\images\kars_all_energy.jpg,7.96443782747e-06,n/a,n/a,,1,2
6,1.5,2,1.5 1.0 1.75,1.5,1.08101146139,$1.75,3.81548435468,6,7,2.74545699684,0,2
2,1.75,12,1.25 1.75,1.75,2.56386031961,$1.75,1.31472744825,7,7,2.48230898281,0,1
5,1.5,6,1.75 0.75 1.5,1.5,1.6456033719,$1.75,1.18374195663,6,7,2.76651953309,0,2
2,1.75,12,1.75 1.25 0.75,1.75,1.28113798224,$1.75,1.08248146987,6,7,3.38107295826,0,1
7,1.75,3,..\..\JOCN-master\task a\images\teddy_grahams_chocolate.jpg ..\..\JOCN-master\task a\images\poptarts_strawberry_frosted.jpg ..\..\JOCN-master\task a\images\doritos_cool ranch_chips.jpg,3,6.25778920949e-06,..\..\JOCN-master\task a\images\doritos_cool ranch_chips.jpg,7.39554525353e-06,n/a,n/a,,1,2
2,1.0,6,1.75 1.0 0.5,1.0,2.91136258523,$1.75,1.08306514972,6,7,2.4783529306,0,1
3,0.75,3,..\..\JOCN-master\task a\images\keebler_fudge_stripes.jpg ..\..\JOCN-master\task a\images\special_k_pastry_crisps_blueberry.jpg ..\..\JOCN-master\task a\images\lance_toasty_with_pb.jpg,3,5.12000406161e-06,..\..\JOCN-master\task a\images\lance_toasty_with_pb.jpg,9.10222297534e-06,n/a,n/a,,1,1
1,1.5,2,0.75 1.5,1.5,1.36127278613,$1.5,2.28236393747,6,7,3.39589478515,0,1
3,0.5,6,0.75 1.5 0.5 1.0 1.25 1.75,0.5,5.11997495778e-06,$0.5,4.55111148767e-06,n/a,n/a,,1,1
2,1.0,6,0.5 1.5 1.0 1.25,1.0,2.73084736546,$1.5,3.05031024344,5,6,2.74623637443,0,1
8,0.5,2,1.0 0.5,0.5,5.68889663555e-06,$0.5,5.11997495778e-06,n/a,n/a,,1,2
5,1.5,2,1.25 1.5 0.5,1.5,1.14537780752,$1.5,2.09895250518,6,6,2.69258277191,0,2
1,0.75,6,..\..\JOCN-master\task a\images\emerald_cashews.jpg ..\..\JOCN-master\task a\images\lays_classic_potato chips.jpg ..\..\JOCN-master\task a\images\skittles_sour_candy.jpg ..\..\JOCN-master\task a\images\teddy_grahams_chocolate.jpg ..\..\JOCN-master\task a\images\nabisco_chips ahhoy_mini.jpg ..\..\JOCN-master\task a\images\this_popcorn_is_awesome_olive_oil.jpg,6,1.04715234216,..\..\JOCN-master\task a\images\skittles_sour_candy.jpg,2.27125297175,6,6,1.99879680036,0,1
5,1.75,2,1.75 1.0,1.75,0.896882091562,$1.75,1.23408576453,6,7,2.36421735419,0,2
6,1.25,3,1.25 1.5,1.25,1.49757283623,$1.5,2.48244892943,6,6,3.0650404793,0,2
2,1.25,2,..\..\JOCN-master\task a\images\pepperidge farms-goldish-cheddar.jpg ..\..\JOCN-master\task a\images\nabisco_nutter butter_cookies and crackers.jpg,2,1.3144276439,..\..\JOCN-master\task a\images\nabisco_nutter butter_cookies and crackers.jpg,2.85731986279,4,4,2.37458648902,0,1
5,1.75,12,0.75 1.25 1.0 0.5 1.5 1.75,1.75,0.779379262764,$1.75,0.849819633819,6,7,3.59847094087,0,2
1,0.5,2,..\..\JOCN-master\task a\images\starburst_orignal_candy.jpg ..\..\JOCN-master\task a\images\sourpatchkids_original_candy.jpg,2,1.99492096144,..\..\JOCN-master\task a\images\starburst_orignal_candy.jpg,1.33615122881,6,7,2.72817017511,0,1
4,1.75,2,1.75 0.75,1.75,5.68889663555e-06,$0.75,5.12000406161e-06,n/a,n/a,,1,1
8,1.5,6,1.25 1.75 0.75 0.5 1.0 1.5,1.5,5.68889663555e-06,$1.75,5.12000406161e-06,n/a,n/a,,1,2
1,1.0,2,0.5 1.0,1.0,1.28096617787,$1.0,2.93267884583,6,7,2.62742680821,0,1
1,0.5,12,..\..\JOCN-master\task a\images\mini_fudge_stripes.jpg ..\..\JOCN-master\task a\images\starburst_favereds_candy.jpg ..\..\JOCN-master\task a\images\skinny_pop_popcorn.jpg ..\..\JOCN-master\task a\images\chex mix_original_traditional.jpg ..\..\JOCN-master\task a\images\this_popcorn_is_awesome_crushed_pepper.jpg ..\..\JOCN-master\task a\images\kind bar_peanut butter_bar.jpg ..\..\JOCN-master\task a\images\baked_lays_sour cream and onion.jpg ..\..\JOCN-master\task a\images\skittles_original_candy.jpg ..\..\JOCN-master\task a\images\baked_lays_classic.jpg ..\..\JOCN-master\task a\images\sourpatchkids_original_candy.jpg ..\..\JOCN-master\task a\images\slim_jim.jpg ..\..\JOCN-master\task a\images\barnum's_animal_crackers.jpg,12,1.77950840048,..\..\JOCN-master\task a\images\skittles_original_candy.jpg,4.32033612221,6,6,2.18161545057,0,1
5,1.5,2,0.75 0.5 1.25 1.5 1.75 1.0,1.5,1.79697442218,$1.75,3.36593255369,6,7,2.66447739323,0,2
4,0.5,2,1.0 1.25 0.75 1.5 1.75 0.5,0.5,5.68889663555e-06,$0.5,4.55111148767e-06,n/a,n/a,,1,1
6,1.75,3,0.75 1.75,1.75,0.732363453892,$1.75,1.33267873203,6,7,2.2608030547,0,2
5,1.0,12,..\..\JOCN-master\task a\images\skinny_pop_popcorn.jpg ..\..\JOCN-master\task a\images\hersheys_milk choc_almond.jpg ..\..\JOCN-master\task a\images\grandmas_chocolate chip_cookies.jpg ..\..\JOCN-master\task a\images\snickers_almond_bar.jpg ..\..\JOCN-master\task a\images\kar's_sweet'n spicy_mix.jpg ..\..\JOCN-master\task a\images\kettle_bbq.jpg ..\..\JOCN-master\task a\images\special_k_pastry_crisps_blueberry.jpg ..\..\JOCN-master\task a\images\nabisco_oreo_mini.jpg ..\..\JOCN-master\task a\images\austin_lemon ohs_lemon cookies.jpg ..\..\JOCN-master\task a\images\welch's_white_grape_raspberry.jpg ..\..\JOCN-master\task a\images\sunchips_harvest cheddar_chips.jpg ..\..\JOCN-master\task a\images\jacklinks_beef_stick.jpg,12,2.28062313798,..\..\JOCN-master\task a\images\kettle_bbq.jpg,4.13678246777,6,7,2.8488570741,0,2
5,1.0,3,..\..\JOCN-master\task a\images\pringles_the original_potato crisps.jpg ..\..\JOCN-master\task a\images\special_k_pastry_crisps_strawberry.jpg ..\..\JOCN-master\task a\images\pringles_sour cream and onion_potato crisps.jpg,3,1.28021126252,..\..\JOCN-master\task a\images\pringles_sour cream and onion_potato crisps.jpg,2.91692688584,6,7,1.85308846846,0,2
1,1.25,12,1.25 1.5 1.75,1.25,1.74673528981,$1.75,0.916752237012,6,7,3.52934527164,0,1
1,1.0,2,1.75 1.25 0.5 1.0 0.75 1.5,1.0,2.86128331054,$1.75,1.78335750161,6,7,4.4950014592,0,1
3,0.75,3,1.25 0.5 0.75 1.5 1.0 1.75,0.75,6.25776010565e-06,$1.25,4.55111148767e-06,n/a,n/a,,1,1
4,0.75,12,..\..\JOCN-master\task a\images\lance_toasty_with_pb.jpg ..\..\JOCN-master\task a\images\nestle_butterfinger_bar.jpg ..\..\JOCN-master\task a\images\hersheys_milk choc_almond.jpg ..\..\JOCN-master\task a\images\pepperidge farms-goldish-cheddar.jpg ..\..\JOCN-master\task a\images\pirates booty_aged white cheddar_ corn puffs.jpg ..\..\JOCN-master\task a\images\kind_dark_chocolate.jpg ..\..\JOCN-master\task a\images\austin_peanut_butter.jpg ..\..\JOCN-master\task a\images\boulder_kettle_sea_salt.jpg ..\..\JOCN-master\task a\images\grandma's_peanut butter_cookies.jpg ..\..\JOCN-master\task a\images\belvita_blueberry.JPG ..\..\JOCN-master\task a\images\cheez itz_original.jpg ..\..\JOCN-master\task a\images\fritos_original_corn chips.jpg,12,5.68886753172e-06,..\..\JOCN-master\task a\images\lance_toasty_with_pb.jpg,7.39557435736e-06,n/a,n/a,,1,1
7,1.75,6,1.75 0.5 1.5 1.0 1.25 0.75,1.75,5.68886753172e-06,$1.0,4.55111148767e-06,n/a,n/a,,1,2
2,0.75,3,..\..\JOCN-master\task a\images\pirates booty_aged white cheddar_ corn puffs.jpg ..\..\JOCN-master\task a\images\sourpatchkids_original_candy.jpg ..\..\JOCN-master\task a\images\belvita_banana_bread.jpg,3,1.44429754472,..\..\JOCN-master\task a\images\sourpatchkids_original_candy.jpg,1.21777003582,6,7,4.05265065169,0,1
5,1.75,2,1.0 1.75 1.5,1.75,1.06513889701,$1.75,2.03234303079,6,7,3.38207022022,0,2
2,0.75,2,..\..\JOCN-master\task a\images\belvita_blueberry.JPG ..\..\JOCN-master\task a\images\keebler_fudge_stripes.jpg,2,n/a,..\..\JOCN-master\task a\images\keebler_fudge_stripes.jpg,n/a,1,7,n/a,1,1
2,0.75,12,..\..\JOCN-master\task a\images\slim_jim.jpg ..\..\JOCN-master\task a\images\snickers_milk chocolate_candy bar.jpg ..\..\JOCN-master\task a\images\m&m's_peanut.jpg ..\..\JOCN-master\task a\images\sourpatch_watermelon_candy.jpg ..\..\JOCN-master\task a\images\this_popcorn_is_awesome_aged_white_cheddar.jpg ..\..\JOCN-master\task a\images\sun chips_garden salsa_chips.jpg ..\..\JOCN-master\task a\images\3 musketeers_candy bar.jpg ..\..\JOCN-master\task a\images\welch's_white_grape_raspberry.jpg ..\..\JOCN-master\task a\images\kars_raisin_almond_cashew_mix.jpg ..\..\JOCN-master\task a\images\lays_classic_potato chips.jpg ..\..\JOCN-master\task a\images\baked_lays_barbeque.jpg ..\..\JOCN-master\task a\images\garden_veggie straws_cheddar.jpg,12,0.970012168546,..\..\JOCN-master\task a\images\welch's_white_grape_raspberry.jpg,2.79564379144,7,1,n/a,1,1
6,1.5,6,1.5 1.75,1.5,1.28851817572,$1.75,3.91551376626,3,5,n/a,1,2
2,1.75,3,0.5 1.75 1.5 1.0,1.75,0.90551725353,$1.75,0.966391760681,6,7,2.33665412647,0,1
5,0.75,12,..\..\JOCN-master\task a\images\nestle_butterfinger_cups.jpg ..\..\JOCN-master\task a\images\famous_amos_chocolate_chip.jpg ..\..\JOCN-master\task a\images\brookside_fruit and nut_bar.jpg ..\..\JOCN-master\task a\images\popchips_sour_cream_and_onion.jpg ..\..\JOCN-master\task a\images\snickers_almond_bar.jpg ..\..\JOCN-master\task a\images\nutrigrain_blueberry_bar.jpg ..\..\JOCN-master\task a\images\keebler_chips delux_cookies_crackers.jpg ..\..\JOCN-master\task a\images\chex mix_original_traditional.jpg ..\..\JOCN-master\task a\images\nabisco_chips ahhoy_mini.jpg ..\..\JOCN-master\task a\images\this_popcorn_is_awesome_aged_white_cheddar.jpg ..\..\JOCN-master\task a\images\haribo_gold_bears.jpg ..\..\JOCN-master\task a\images\kettle_bbq.jpg,12,1.24746318295,..\..\JOCN-master\task a\images\famous_amos_chocolate_chip.jpg,1.96297217056,6,7,3.08078390593,0,2
6,0.5,3,..\..\JOCN-master\task a\images\starburst_favereds_candy.jpg ..\..\JOCN-master\task a\images\popchips_barbeque.jpg ..\..\JOCN-master\task a\images\fritos_original_corn chips.jpg,3,1.11141515055,..\..\JOCN-master\task a\images\starburst_favereds_candy.jpg,1.87675082617,6,6,2.34882606968,0,2
3,1.5,2,..\..\JOCN-master\task a\images\skittles_wild berry_candy.jpg ..\..\JOCN-master\task a\images\fritos_original_corn chips.jpg,2,5.12000406161e-06,..\..\JOCN-master\task a\images\skittles_wild berry_candy.jpg,1.02400081232e-05,n/a,n/a,,1,1
7,1.25,6,1.75 1.25,1.25,5.12000406161e-06,$1.25,4.55111148767e-06,n/a,n/a,,1,2
7,0.5,6,1.75 0.5 0.75,0.5,5.68889663555e-06,$0.75,5.11997495778e-06,n/a,n/a,,1,2
4,0.5,6,1.75 1.5 0.75 1.25 0.5 1.0,0.5,5.12000406161e-06,$1.25,5.12000406161e-06,n/a,n/a,,1,1
1,0.5,2,..\..\JOCN-master\task a\images\mini_fudge_stripes.jpg ..\..\JOCN-master\task a\images\sourpatchkids_original_candy.jpg,2,1.31149957361,..\..\JOCN-master\task a\images\mini_fudge_stripes.jpg,n/a,2,2,n/a,1,1
2,1.25,6,1.5 0.75 1.0 1.25 1.75 0.5,1.25,1.96999623964,1.5,n/a,2,5,n/a,1,1
8,0.5,12,1.25 0.5 0.75 1.5 1.75 1.0,0.5,5.68889663555e-06,$1.75,5.12000406161e-06,n/a,n/a,,1,2
7,1.5,3,0.75 1.5 1.25,1.5,5.68889663555e-06,$0.75,5.68886753172e-06,n/a,n/a,,1,2
1,1.75,6,..\..\JOCN-master\task a\images\emerald_natural_almonds.jpg ..\..\JOCN-master\task a\images\kettle_salt_pepper.jpg ..\..\JOCN-master\task a\images\kitkat_crisp wafers_milk choc.jpg ..\..\JOCN-master\task a\images\popchips_barbeque.jpg ..\..\JOCN-master\task a\images\boulder_kettle_hickory_bbq.jpg ..\..\JOCN-master\task a\images\pringles_cheddar_potato crisps.jpg,6,1.1604738388,..\..\JOCN-master\task a\images\kitkat_crisp wafers_milk choc.jpg,2.03854903791,5,6,3.49286983316,0,1
