Trial Type, Money Option, Item Option, Trial Options, Choice 1, Choice 1 RT, Choice 2, Choice 2 RT, Decision Rating , Selected Option Rating, PostChoiceRT, Computer Response, Choosing For
3,0.5,3,0.75 0.5 1.0 1.5,0.5,6.82668178342e-06,$0.5,5.12000406161e-06,n/a,n/a,,1,1
4,0.75,6,1.0 0.75 0.5 1.75,0.75,5.12000406161e-06,$1.75,5.12000406161e-06,n/a,n/a,,1,1
1,1.25,3,..\..\JOCN-master\task a\images\barnum's_animal_crackers.jpg ..\..\JOCN-master\task a\images\welch's_white_grape_raspberry.jpg ..\..\JOCN-master\task a\images\emerald_dark_chocolate_almonds.jpg,3,3.0565657439,..\..\JOCN-master\task a\images\welch's_white_grape_raspberry.jpg,4.41647831709,2,2,n/a,1,1
2,1.25,2,0.5 1.25 1.5 0.75,1.25,2.52925538723,$1.25,2.61487257175,1,1,n/a,1,1
6,1.5,12,..\..\JOCN-master\task a\images\chips_ahoy_thin_crisps.jpg ..\..\JOCN-master\task a\images\quaker_chewy_peanut butter choc chip.jpg ..\..\JOCN-master\task a\images\quaker_chewy_chocolate chip.jpg ..\..\JOCN-master\task a\images\grandmas_chocolate chip_cookies.jpg ..\..\JOCN-master\task a\images\this_popcorn_is_awesome_aged_white_cheddar.jpg ..\..\JOCN-master\task a\images\grandma's_peanut butter_cookies.jpg ..\..\JOCN-master\task a\images\this_popcorn_is_awesome_olive_oil.jpg ..\..\JOCN-master\task a\images\pirates booty_aged white cheddar_ corn puffs.jpg ..\..\JOCN-master\task a\images\garden_veggie straws_zesty ranch.jpg ..\..\JOCN-master\task a\images\sun chips_french onion_chips.jpg ..\..\JOCN-master\task a\images\reeses_peanut butter cups_milk choc.jpg ..\..\JOCN-master\task a\images\jacklinks_beef_steak.jpg,12,1.79588613805,..\..\JOCN-master\task a\images\quaker_chewy_chocolate chip.jpg,3.64352408363,3,3,n/a,1,2
6,0.5,12,..\..\JOCN-master\task a\images\fiber one_lemon_ bar.jpg ..\..\JOCN-master\task a\images\quakers_popped_rice_crisps.jpg ..\..\JOCN-master\task a\images\popchips_ridges_tangy_bbq.jpg ..\..\JOCN-master\task a\images\popchips_ridges_perfectly_salted.jpg ..\..\JOCN-master\task a\images\annie's_chocolate_bunny_grahams.jpg ..\..\JOCN-master\task a\images\sun chips_french onion_chips.jpg ..\..\JOCN-master\task a\images\3 musketeers_candy bar.jpg ..\..\JOCN-master\task a\images\annie's_cheddar_bunnies.jpg ..\..\JOCN-master\task a\images\nature valley_oats and honey_crunchy.jpg ..\..\JOCN-master\task a\images\cheez-it_white_cheddar.JPG ..\..\JOCN-master\task a\images\lance_toasty_with_pb.jpg ..\..\JOCN-master\task a\images\fig_newtons.jpg,12,4.39990829513,..\..\JOCN-master\task a\images\popchips_ridges_tangy_bbq.jpg,n/a,6,2,n/a,1,2
8,1.5,6,1.5 0.75 0.5 1.0,1.5,5.68886753172e-06,$1.0,4.55111148767e-06,n/a,n/a,,1,2
6,1.25,6,..\..\JOCN-master\task a\images\larabar_peanut putter_bar.jpg ..\..\JOCN-master\task a\images\mini_fudge_stripes.jpg ..\..\JOCN-master\task a\images\austin_peanut butter_cheese cracker.jpg ..\..\JOCN-master\task a\images\annie's_chocolate_bunny_grahams.jpg ..\..\JOCN-master\task a\images\sourpatchkids_original_candy.jpg ..\..\JOCN-master\task a\images\nestle_butterfinger_bar.jpg,6,1.86636405578,..\..\JOCN-master\task a\images\nestle_butterfinger_bar.jpg,3.305480162,6,2,n/a,1,2
6,0.75,12,1.0 0.75,0.75,1.56700911871,$1.0,2.24866922703,5,7,n/a,1,2
1,1.5,3,..\..\JOCN-master\task a\images\stonyfield_fruit_snacks.jpg ..\..\JOCN-master\task a\images\barnum's_animal_crackers.jpg ..\..\JOCN-master\task a\images\homefree_vanilla_minicookies.jpg,3,0.829761186178,..\..\JOCN-master\task a\images\stonyfield_fruit_snacks.jpg,2.20376513313,5,2,n/a,1,1
5,1.25,3,1.5 1.75 0.5 1.25 1.0 0.75,1.25,0.855469836679,$1.75,3.33134127464,5,5,n/a,1,2
5,1.0,3,..\..\JOCN-master\task a\images\garden_veggie straws_sea salt.jpg ..\..\JOCN-master\task a\images\this_popcorn_is_awesome_aged_white_cheddar.jpg ..\..\JOCN-master\task a\images\annie's_honey_bunny_grahams.jpg,3,1.71770205363,..\..\JOCN-master\task a\images\garden_veggie straws_sea salt.jpg,2.84391115551,4,7,n/a,1,2
5,1.0,3,1.25 1.5 1.0 0.75 0.5 1.75,1.0,1.52255501581,$1.75,2.31594771458,2,1,n/a,1,2
2,1.25,2,..\..\JOCN-master\task a\images\fig_newtons.jpg ..\..\JOCN-master\task a\images\stonyfield_fruit_snacks.jpg,2,1.66259949154,..\..\JOCN-master\task a\images\fig_newtons.jpg,2.4118543895,2,3,n/a,1,1
8,1.75,3,1.75 0.5,1.75,6.82668178342e-06,$1.75,4.55111148767e-06,n/a,n/a,,1,2
6,1.25,12,..\..\JOCN-master\task a\images\welch's_white_grape_raspberry.jpg ..\..\JOCN-master\task a\images\baked_cheetos_crunchy.jpg ..\..\JOCN-master\task a\images\pringles_sour cream and onion_potato crisps.jpg ..\..\JOCN-master\task a\images\austin_peanut_butter.jpg ..\..\JOCN-master\task a\images\pepperidge farms-goldish-cheddar.jpg ..\..\JOCN-master\task a\images\fiber one_cinamon_coffee cake.jpg ..\..\JOCN-master\task a\images\cliff_chocolate chip_bar.jpg ..\..\JOCN-master\task a\images\hersey_milk_chocolate.jpg ..\..\JOCN-master\task a\images\mini_fudge_stripes.jpg ..\..\JOCN-master\task a\images\homefree_vanilla_minicookies.jpg ..\..\JOCN-master\task a\images\skittles_wild berry_candy.jpg ..\..\JOCN-master\task a\images\welch's_mixed fruit_fruit snacks.jpg,12,n/a,..\..\JOCN-master\task a\images\homefree_vanilla_minicookies.jpg,n/a,4,2,n/a,1,2
6,0.5,2,..\..\JOCN-master\task a\images\nestle_butterfinger_bar.jpg ..\..\JOCN-master\task a\images\wheat_thins.jpg,2,1.0735874635,..\..\JOCN-master\task a\images\nestle_butterfinger_bar.jpg,1.19990010312,7,7,3.4846658888,0,2
8,1.25,3,1.0 1.25,1.25,5.68886753172e-06,$1.25,4.55111148767e-06,n/a,n/a,,1,2
1,0.5,2,..\..\JOCN-master\task a\images\black_forest_gummies.jpg ..\..\JOCN-master\task a\images\baked_lays_classic.jpg,2,1.69617871754,..\..\JOCN-master\task a\images\baked_lays_classic.jpg,1.22258511002,7,7,2.62244675629,0,1
3,1.25,3,..\..\JOCN-master\task a\images\sourpatchkids_original_candy.jpg ..\..\JOCN-master\task a\images\krave_jerky_chili_lime.jpg ..\..\JOCN-master\task a\images\nabisco_nutter butter_cookies and crackers.jpg,3,5.12000406161e-06,..\..\JOCN-master\task a\images\krave_jerky_chili_lime.jpg,2.10489088204e-05,n/a,n/a,,1,1
2,0.75,2,..\..\JOCN-master\task a\images\nutrigrain_apple cinnamon_bar.jpg ..\..\JOCN-master\task a\images\mini_fudge_stripes.jpg,2,1.26647146198,..\..\JOCN-master\task a\images\mini_fudge_stripes.jpg,1.99033344275,7,3,n/a,1,1
8,1.0,12,..\..\JOCN-master\task a\images\grandma's_peanut butter_cookies.jpg ..\..\JOCN-master\task a\images\fiber one_oats and choc_chewy bar.jpg ..\..\JOCN-master\task a\images\cheez-it_white_cheddar.JPG ..\..\JOCN-master\task a\images\chips_ahoy_thin_crisps.jpg ..\..\JOCN-master\task a\images\grandmas_chocolate chip_cookies.jpg ..\..\JOCN-master\task a\images\kind_almond_butter.jpg ..\..\JOCN-master\task a\images\black_forest_gummies.jpg ..\..\JOCN-master\task a\images\emerald_dark_chocolate_almonds.jpg ..\..\JOCN-master\task a\images\cascadian_farm_granola.jpg ..\..\JOCN-master\task a\images\this_popcorn_is_awesome_crushed_pepper.jpg ..\..\JOCN-master\task a\images\homefree_doublechocolatechip_minicookies.jpg ..\..\JOCN-master\task a\images\lance_choc-o_cookies.jpg,12,5.68889663555e-06,..\..\JOCN-master\task a\images\homefree_doublechocolatechip_minicookies.jpg,9.10222297534e-06,n/a,n/a,,1,2
8,1.75,3,1.75 1.25,1.75,6.25778920949e-06,$1.25,4.55108238384e-06,n/a,n/a,,1,2
1,1.25,6,..\..\JOCN-master\task a\images\barnum's_animal_crackers.jpg ..\..\JOCN-master\task a\images\pringles_sour cream and onion_potato crisps.jpg ..\..\JOCN-master\task a\images\poptarts_strawberry_frosted.jpg ..\..\JOCN-master\task a\images\swedish fish_original_candy.jpg ..\..\JOCN-master\task a\images\mini_fudge_stripes.jpg ..\..\JOCN-master\task a\images\skittles_original_candy.jpg,6,1.46671517391,..\..\JOCN-master\task a\images\swedish fish_original_candy.jpg,3.03562210541,7,7,3.17703930964,0,1
5,0.5,2,..\..\JOCN-master\task a\images\doritos_cool ranch_chips.jpg ..\..\JOCN-master\task a\images\quaker_chewy_dark choc chunk.jpg,2,1.10383413933,..\..\JOCN-master\task a\images\doritos_cool ranch_chips.jpg,1.58719727298,4,4,3.70012737418,0,2
7,1.5,3,..\..\JOCN-master\task a\images\lance_toast_cheese_with_pb.JPG ..\..\JOCN-master\task a\images\skittles_sour_candy.jpg ..\..\JOCN-master\task a\images\homefree_vanilla_minicookies.jpg,3,5.68886753172e-06,..\..\JOCN-master\task a\images\lance_toast_cheese_with_pb.JPG,6.82665267959e-06,n/a,n/a,,1,2
1,1.75,6,..\..\JOCN-master\task a\images\nestle_butterfinger_cups.jpg ..\..\JOCN-master\task a\images\m&m's_peanut_butter.jpg ..\..\JOCN-master\task a\images\this_popcorn_is_awesome_popcorn.jpg ..\..\JOCN-master\task a\images\pringles_the original_potato crisps.jpg ..\..\JOCN-master\task a\images\haribo_gold_bears.jpg ..\..\JOCN-master\task a\images\quaker_chewy_chocolate chip.jpg,6,1.63521148154,..\..\JOCN-master\task a\images\haribo_gold_bears.jpg,2.54924386155,4,7,3.11063179074,0,1
6,1.25,2,0.5 1.5 1.0 1.75 0.75 1.25,1.25,1.53652407849,$1.25,2.53196215982,4,4,3.1461059851,0,2
2,0.75,6,..\..\JOCN-master\task a\images\ct_crunch_cereal_bar.jpg ..\..\JOCN-master\task a\images\reeses_peanut butter cups_milk choc.jpg ..\..\JOCN-master\task a\images\nestle_babyruth_bar.jpg ..\..\JOCN-master\task a\images\doritos_cool ranch_chips.jpg ..\..\JOCN-master\task a\images\pringles_sour cream and onion_potato crisps.jpg ..\..\JOCN-master\task a\images\skittles_sour_candy.jpg,6,1.28741111825,..\..\JOCN-master\task a\images\reeses_peanut butter cups_milk choc.jpg,1.97969294799,6,7,2.70782557642,0,1
7,1.0,2,..\..\JOCN-master\task a\images\kind_almond_butter.jpg ..\..\JOCN-master\task a\images\chex mix_original_traditional.jpg,2,6.25778920949e-06,..\..\JOCN-master\task a\images\chex mix_original_traditional.jpg,8.53333040141e-06,n/a,n/a,,1,2
6,1.0,6,..\..\JOCN-master\task a\images\jacklinks_small_batch.jpg ..\..\JOCN-master\task a\images\brookside_fruit and nut_bar.jpg ..\..\JOCN-master\task a\images\annie's_cheddar_bunnies.jpg ..\..\JOCN-master\task a\images\nuture valley_crunchy_bar.jpg ..\..\JOCN-master\task a\images\garden_veggie straws_cheddar.jpg ..\..\JOCN-master\task a\images\this_popcorn_is_awesome_olive_oil.jpg,6,2.04720923101,..\..\JOCN-master\task a\images\jacklinks_small_batch.jpg,2.31402600845,2,1,n/a,1,2
5,0.75,12,0.75 1.5 1.75,0.75,2.54208269026,$1.75,2.11684519344,7,7,2.45550465267,0,2
1,1.75,6,1.75 0.75 1.5 1.0,1.75,1.07772328454,$1.75,1.81673704766,7,7,2.92012347159,0,1
7,1.25,12,1.25 0.5 1.75 0.75 1.5 1.0,1.25,5.12000406161e-06,$0.75,4.55111148767e-06,n/a,n/a,,1,2
7,1.5,3,0.5 1.5 1.0,1.5,5.68886753172e-06,$1.5,4.55111148767e-06,n/a,n/a,,1,2
1,1.25,3,..\..\JOCN-master\task a\images\twix_milk chocolate_cookie bars.jpg ..\..\JOCN-master\task a\images\black_forest_gummies.jpg ..\..\JOCN-master\task a\images\fig_newtons.jpg,3,1.04326171213,..\..\JOCN-master\task a\images\twix_milk chocolate_cookie bars.jpg,1.67595756773,6,7,3.30609456182,0,1
1,1.5,12,..\..\JOCN-master\task a\images\basils_lemon.jpg ..\..\JOCN-master\task a\images\baked_lays_barbeque.jpg ..\..\JOCN-master\task a\images\annie's_chocolate_chip_bunny_grahams.jpg ..\..\JOCN-master\task a\images\pringles_sour cream and onion_potato crisps.jpg ..\..\JOCN-master\task a\images\starburst_verry berry_candy.jpg ..\..\JOCN-master\task a\images\sourpatchkids_original_candy.jpg ..\..\JOCN-master\task a\images\keebler_fudge_stripes.jpg ..\..\JOCN-master\task a\images\larabar_cashew_cookie_bar.jpg ..\..\JOCN-master\task a\images\skittles_darkside_candy.jpg ..\..\JOCN-master\task a\images\baked_lays_classic.jpg ..\..\JOCN-master\task a\images\this_popcorn_is_awesome_crushed_pepper.jpg ..\..\JOCN-master\task a\images\nabisco_chips ahhoy_mini.jpg,12,1.3147200527,..\..\JOCN-master\task a\images\sourpatchkids_original_candy.jpg,2.4901721628,6,7,4.17063931146,0,1
3,1.5,12,0.5 1.0 1.75 0.75 1.5 1.25,1.5,5.68889663555e-06,$1.0,4.55111148767e-06,n/a,n/a,,1,1
5,1.25,2,..\..\JOCN-master\task a\images\nabisco_teddy graham_honey.jpg ..\..\JOCN-master\task a\images\popchips_sour_cream_and_onion.jpg,2,2.05871841888,..\..\JOCN-master\task a\images\nabisco_teddy graham_honey.jpg,1.65372255186,4,7,3.05434082009,0,2
3,1.5,3,1.25 0.5 0.75 1.5 1.75 1.0,1.5,6.25776010565e-06,$0.5,5.12000406161e-06,n/a,n/a,,1,1
2,0.75,6,..\..\JOCN-master\task a\images\cloverhill_cheese_danish.jpg ..\..\JOCN-master\task a\images\austin_cheddar cheese_cheese cracker.jpg ..\..\JOCN-master\task a\images\lance_choc-o_cookies.jpg ..\..\JOCN-master\task a\images\wheat_thins.jpg ..\..\JOCN-master\task a\images\doritos_nacho cheesier_chips.jpg ..\..\JOCN-master\task a\images\fiber one_chocolate fudge_ brownie.jpg,6,1.33478362032,..\..\JOCN-master\task a\images\wheat_thins.jpg,2.78726235384,6,7,3.98421561337,0,1
5,1.5,2,1.75 1.25 1.5,1.5,1.04584162252,$1.75,1.76601606657,7,7,2.39958744191,0,2
5,1.5,2,1.0 0.5 1.5 1.75 0.75 1.25,1.5,2.34376978665,$1.75,2.03353883492,7,7,3.0651041948,0,2
1,1.25,2,..\..\JOCN-master\task a\images\grandmas_chocolate chip_cookies.jpg ..\..\JOCN-master\task a\images\cheetos_crunchy_chips.jpg,2,0.783019581722,..\..\JOCN-master\task a\images\cheetos_crunchy_chips.jpg,1.08030091936,7,7,2.53105762674,0,1
5,1.0,3,..\..\JOCN-master\task a\images\chex mix_original_traditional.jpg ..\..\JOCN-master\task a\images\skittles_original_candy.jpg ..\..\JOCN-master\task a\images\nature_valley_granola_cups_peanut_butter.jpg,3,1.72394333186,..\..\JOCN-master\task a\images\skittles_original_candy.jpg,2.08629643766,4,7,3.83264772763,0,2
1,1.0,3,0.5 1.0 1.5 1.25,1.0,1.4284392026,$1.25,2.33373515841,7,7,2.86389564758,0,1
4,0.5,12,1.0 1.5 1.75 0.5 1.25 0.75,0.5,5.68886753172e-06,$0.5,4.55111148767e-06,n/a,n/a,,1,1
7,1.25,3,1.25 1.0,1.25,5.68886753172e-06,$1.25,5.12000406161e-06,n/a,n/a,,1,2
2,0.75,2,..\..\JOCN-master\task a\images\lance_toasty_with_pb.jpg ..\..\JOCN-master\task a\images\quaker_chewy_chocolate chip.jpg,2,1.67574764779,..\..\JOCN-master\task a\images\lance_toasty_with_pb.jpg,2.10692263625,4,7,3.62682663059,0,1
4,1.25,2,..\..\JOCN-master\task a\images\pringles_the original_potato crisps.jpg ..\..\JOCN-master\task a\images\nabisco_nutter butter_bites.jpg,2,6.25778920949e-06,..\..\JOCN-master\task a\images\pringles_the original_potato crisps.jpg,1.02400081232e-05,n/a,n/a,,1,1
3,0.75,2,1.25 0.75 1.5 1.75 1.0 0.5,0.75,5.12000406161e-06,$0.5,1.02399790194e-05,n/a,n/a,,1,1
2,1.0,3,..\..\JOCN-master\task a\images\brookside_fruit and nut_bar.jpg ..\..\JOCN-master\task a\images\m&m's_milk_chocholate.jpg ..\..\JOCN-master\task a\images\keebler_chips delux_cookies_crackers.jpg,3,1.85068206914,..\..\JOCN-master\task a\images\m&m's_milk_chocholate.jpg,2.03620976748,7,7,3.12718303938,0,1
7,1.75,2,0.75 1.25 0.5 1.75,1.75,5.68889663555e-06,$1.25,5.12000406161e-06,n/a,n/a,,1,2
3,0.5,6,0.75 1.75 1.5 1.25 0.5 1.0,0.5,4.55108238384e-06,$0.75,4.55111148767e-06,n/a,n/a,,1,1
4,1.75,12,1.5 1.75 0.5,1.75,5.11997495778e-06,$1.75,6.25776010565e-06,n/a,n/a,,1,1
3,1.25,3,..\..\JOCN-master\task a\images\grandmas_chocolate chip_cookies.jpg ..\..\JOCN-master\task a\images\kellogg's_rice krispies_orignal.jpg ..\..\JOCN-master\task a\images\annie's_chocolate_bunny_grahams.jpg,3,5.12000406161e-06,..\..\JOCN-master\task a\images\grandmas_chocolate chip_cookies.jpg,8.53333040141e-06,n/a,n/a,,1,1
2,0.75,2,..\..\JOCN-master\task a\images\larabar_cashew_cookie_bar.jpg ..\..\JOCN-master\task a\images\m&m's_milk_chocholate.jpg,2,1.64940582417,..\..\JOCN-master\task a\images\m&m's_milk_chocholate.jpg,1.90800614172,7,7,2.70128961385,0,1
8,1.25,2,..\..\JOCN-master\task a\images\belvita_banana_bread.jpg ..\..\JOCN-master\task a\images\kashi_chocolate almond _bars.jpg,2,5.12000406161e-06,..\..\JOCN-master\task a\images\belvita_banana_bread.jpg,2.33244500123e-05,n/a,n/a,,1,2
1,0.75,3,..\..\JOCN-master\task a\images\sensible_portions_cinnamon_apple_straws.jpg ..\..\JOCN-master\task a\images\keebler_vanilla_sugar_wafers.jpg ..\..\JOCN-master\task a\images\quaker_chewy_peanut butter choc chip.jpg,3,1.9906690871,..\..\JOCN-master\task a\images\sensible_portions_cinnamon_apple_straws.jpg,1.62520757326,4,7,3.83577832227,0,1
6,0.75,12,1.25 0.5 1.5 0.75,0.75,1.85539645003,$1.25,1.76627320427,4,5,4.35926233337,0,2
8,1.5,2,0.5 1.0 1.5,1.5,5.68889663555e-06,$1.0,4.55108238384e-06,n/a,n/a,,1,2
3,1.5,6,1.75 0.5 1.5 0.75 1.25 1.0,1.5,5.68886753172e-06,$1.75,4.55108238384e-06,n/a,n/a,,1,1
7,0.5,12,..\..\JOCN-master\task a\images\lance_toast_cheese_with_pb.JPG ..\..\JOCN-master\task a\images\larabar_cashew_cookie_bar.jpg ..\..\JOCN-master\task a\images\kettle_jalepeno.jpg ..\..\JOCN-master\task a\images\3 musketeers_candy bar.jpg ..\..\JOCN-master\task a\images\stonyfield_fruit snacks.jpg ..\..\JOCN-master\task a\images\emerald_natural_almonds.jpg ..\..\JOCN-master\task a\images\sunchips_harvest cheddar_chips.jpg ..\..\JOCN-master\task a\images\nutrigrain_blueberry_bar.jpg ..\..\JOCN-master\task a\images\basil_vanilla.jpg ..\..\JOCN-master\task a\images\krave_jerky_black_cherry_bbq.jpg ..\..\JOCN-master\task a\images\skittles_sour_candy.jpg ..\..\JOCN-master\task a\images\baked_lays_classic.jpg,12,5.68886753172e-06,..\..\JOCN-master\task a\images\baked_lays_classic.jpg,9.10219387151e-06,n/a,n/a,,1,2
7,1.25,6,1.25 1.0 1.75 0.5,1.25,5.12000406161e-06,$1.75,4.55111148767e-06,n/a,n/a,,1,2
2,0.75,6,..\..\JOCN-master\task a\images\grandmas_chocolate brownie_cookie.jpg ..\..\JOCN-master\task a\images\fiber one_oats and choc_chewy bar.jpg ..\..\JOCN-master\task a\images\larabar_peanut putter_bar.jpg ..\..\JOCN-master\task a\images\keebler_chips_deluxe.jpg ..\..\JOCN-master\task a\images\welch's_berry.jpg ..\..\JOCN-master\task a\images\quaker_chewy_dark choc chunk.jpg,6,1.64067053777,..\..\JOCN-master\task a\images\larabar_peanut putter_bar.jpg,2.8503816959,6,7,4.44168862104,0,1
2,1.25,12,..\..\JOCN-master\task a\images\belvita_banana_bread.jpg ..\..\JOCN-master\task a\images\kettle_jalepeno.jpg ..\..\JOCN-master\task a\images\this_popcorn_is_awesome_popcorn.jpg ..\..\JOCN-master\task a\images\larabar_cashew_cookie_bar.jpg ..\..\JOCN-master\task a\images\ritz_toasted_chips.jpg ..\..\JOCN-master\task a\images\lance_toast_cheese_with_pb.JPG ..\..\JOCN-master\task a\images\kar's_yogurt apple_nut mix.jpg ..\..\JOCN-master\task a\images\baked_lays_classic.jpg ..\..\JOCN-master\task a\images\hersey_milk_chocolate.jpg ..\..\JOCN-master\task a\images\nabisco_mini_ritz.jpg ..\..\JOCN-master\task a\images\basils_duplex_sandwich_cremes.jpg ..\..\JOCN-master\task a\images\lance_van-o_cookies.jpg,12,1.68780751989,..\..\JOCN-master\task a\images\kettle_jalepeno.jpg,3.4409183457,5,7,2.43226668594,0,1
5,1.0,12,1.25 1.75 1.0 0.5,1.0,1.5648052438,$1.75,1.11704999337,7,7,2.98083868989,0,2
2,1.5,2,1.5 1.0 1.25 0.5,1.5,1.72123200819,$1.5,2.33375108728,7,7,2.54808105298,0,1
4,1.25,6,..\..\JOCN-master\task a\images\ct_crunch_cereal_bar.jpg ..\..\JOCN-master\task a\images\stonyfield_fruit_snacks.jpg ..\..\JOCN-master\task a\images\larabar_peanut_butter_cookie_bar.jpg ..\..\JOCN-master\task a\images\quakers_popped_rice_crisps.jpg ..\..\JOCN-master\task a\images\larabar_apple_pie_bar.jpg ..\..\JOCN-master\task a\images\kettle_original.jpg,6,5.68889663555e-06,..\..\JOCN-master\task a\images\ct_crunch_cereal_bar.jpg,1.59288756549e-05,n/a,n/a,,1,1
1,1.0,6,..\..\JOCN-master\task a\images\emerald_dark_chocolate_almonds.jpg ..\..\JOCN-master\task a\images\haribo_gold_bears.jpg ..\..\JOCN-master\task a\images\m&m's_milk_chocholate.jpg ..\..\JOCN-master\task a\images\nature_valley_granola_cups_almond_butter.jpg ..\..\JOCN-master\task a\images\planters_salted_cashews.jpg ..\..\JOCN-master\task a\images\wheat_thins.jpg,6,1.98290091153,..\..\JOCN-master\task a\images\nature_valley_granola_cups_almond_butter.jpg,2.44454102911,6,7,3.95865885619,0,1
6,1.0,2,..\..\JOCN-master\task a\images\nutrigrain_blueberry_bar.jpg ..\..\JOCN-master\task a\images\kars_all_energy.jpg,2,2.01975579883,..\..\JOCN-master\task a\images\nutrigrain_blueberry_bar.jpg,1.63258833563,3,1,n/a,1,2
6,1.0,2,..\..\JOCN-master\task a\images\krave_jerky_sweet_chipotle.jpg ..\..\JOCN-master\task a\images\popchips_ridges_perfectly_salted.jpg,2,2.28048148466,..\..\JOCN-master\task a\images\krave_jerky_sweet_chipotle.jpg,1.38118218491,4,4,3.30660826835,0,2
6,1.0,2,1.0 0.75 1.25,1.0,1.56299105764,$1.25,2.94865494795,7,7,2.64853940665,0,2
2,0.5,12,..\..\JOCN-master\task a\images\nature_valley_sweet_and_salty.jpg ..\..\JOCN-master\task a\images\snyders_mini_pretzels.jpg ..\..\JOCN-master\task a\images\starburst_favereds_candy.jpg ..\..\JOCN-master\task a\images\cheetos_crunchy_chips.jpg ..\..\JOCN-master\task a\images\oreo_thin_crisps.jpg ..\..\JOCN-master\task a\images\krave_jerky_black_cherry_bbq.jpg ..\..\JOCN-master\task a\images\annie's_cheddar_bunnies.jpg ..\..\JOCN-master\task a\images\pepperidge farms-goldish-cheddar.jpg ..\..\JOCN-master\task a\images\austin_vanilla creme_vanilla cookies.jpg ..\..\JOCN-master\task a\images\austin_cheddar cheese_cheese cracker.jpg ..\..\JOCN-master\task a\images\kellogg's_rice krispies_orignal.jpg ..\..\JOCN-master\task a\images\baked_lays_classic.jpg,12,1.40912713695,..\..\JOCN-master\task a\images\baked_lays_classic.jpg,3.07080957986,7,7,2.81970550906,0,1
5,1.25,6,..\..\JOCN-master\task a\images\grandma's_peanut butter_cookies.jpg ..\..\JOCN-master\task a\images\mini_cheese_nips.jpg ..\..\JOCN-master\task a\images\krave_jerky_original.jpg ..\..\JOCN-master\task a\images\nabisco_chips ahhoy_mini.jpg ..\..\JOCN-master\task a\images\haribo_gold_bears.jpg ..\..\JOCN-master\task a\images\fritos_original_corn chips.jpg,6,1.94257864746,..\..\JOCN-master\task a\images\mini_cheese_nips.jpg,1.77781140542,4,4,3.05000076798,0,2
4,0.5,3,1.0 0.5,0.5,5.12000406161e-06,$0.5,4.55111148767e-06,n/a,n/a,,1,1
4,1.75,3,..\..\JOCN-master\task a\images\krave_jerky_chili_lime.jpg ..\..\JOCN-master\task a\images\kar's_yogurt apple_nut mix.jpg ..\..\JOCN-master\task a\images\snickers_almond_bar.jpg,3,5.12000406161e-06,..\..\JOCN-master\task a\images\snickers_almond_bar.jpg,8.53333040141e-06,n/a,n/a,,1,1
4,0.5,6,..\..\JOCN-master\task a\images\emerald_dark_chocolate_almonds.jpg ..\..\JOCN-master\task a\images\belvita_golden_oats.JPG ..\..\JOCN-master\task a\images\combos_cheddar cheese_pretzel.jpg ..\..\JOCN-master\task a\images\popchips_barbeque.jpg ..\..\JOCN-master\task a\images\emerald_sriracha_cashews.jpg ..\..\JOCN-master\task a\images\lance_captain_wafers_with_honey_and_pb.JPG,6,5.12000406161e-06,..\..\JOCN-master\task a\images\emerald_sriracha_cashews.jpg,9.67111554928e-06,n/a,n/a,,1,1
3,1.0,2,..\..\JOCN-master\task a\images\fiber one_oats and choc_chewy bar.jpg ..\..\JOCN-master\task a\images\cascadian_farm_granola.jpg,2,5.68886753172e-06,..\..\JOCN-master\task a\images\fiber one_oats and choc_chewy bar.jpg,7.39554525353e-06,n/a,n/a,,1,1
2,0.75,12,..\..\JOCN-master\task a\images\twix_milk chocolate_cookie bars.jpg ..\..\JOCN-master\task a\images\hersey_milk_chocolate.jpg ..\..\JOCN-master\task a\images\keebler_chips delux_cookies_crackers.jpg ..\..\JOCN-master\task a\images\milkyway_orginal_candy.jpg ..\..\JOCN-master\task a\images\garden_veggie straws_cheddar.jpg ..\..\JOCN-master\task a\images\popchips_ridges_perfectly_salted.jpg ..\..\JOCN-master\task a\images\welch's_mixed fruit_fruit snacks.jpg ..\..\JOCN-master\task a\images\nestle_butterfinger_cups.jpg ..\..\JOCN-master\task a\images\pringles_sour cream and onion_potato crisps.jpg ..\..\JOCN-master\task a\images\ritz_toasted_chips.jpg ..\..\JOCN-master\task a\images\kettle_salt_pepper.jpg ..\..\JOCN-master\task a\images\quaker_chewy_dark choc chunk.jpg,12,2.15859479934,..\..\JOCN-master\task a\images\garden_veggie straws_cheddar.jpg,3.89179338189,5,7,2.20105039616,0,1
7,0.5,3,..\..\JOCN-master\task a\images\kars_all_energy.jpg ..\..\JOCN-master\task a\images\kettle_original.jpg ..\..\JOCN-master\task a\images\larabar_apple_pie_bar.jpg,3,5.68889663555e-06,..\..\JOCN-master\task a\images\larabar_apple_pie_bar.jpg,1.53600121848e-05,n/a,n/a,,1,2
6,1.75,12,0.5 1.75 1.0,1.75,1.94200293205,$1.75,1.80010615464,7,7,2.8602371242,0,2
5,0.75,12,..\..\JOCN-master\task a\images\basil_vanilla.jpg ..\..\JOCN-master\task a\images\nutrigrain_blueberry_bar.jpg ..\..\JOCN-master\task a\images\nature_valley_chewy.jpg ..\..\JOCN-master\task a\images\swedish fish_original_candy.jpg ..\..\JOCN-master\task a\images\chex mix_original_traditional.jpg ..\..\JOCN-master\task a\images\jacklinks_beef_stick.jpg ..\..\JOCN-master\task a\images\keebler_cheese_and_peanut_butter.jpg ..\..\JOCN-master\task a\images\nabisco_ritz bits_cookies.jpg ..\..\JOCN-master\task a\images\welch's_mixed fruit_fruit snacks.jpg ..\..\JOCN-master\task a\images\quakers_popped_rice_crisps.jpg ..\..\JOCN-master\task a\images\fiber one_oats and choc_chewy bar.jpg ..\..\JOCN-master\task a\images\krave_jerky_chili_lime.jpg,12,1.57894042198,..\..\JOCN-master\task a\images\nabisco_ritz bits_cookies.jpg,3.78167700433,4,4,2.77354075774,0,2
1,1.5,3,..\..\JOCN-master\task a\images\annie's_honey_bunny_grahams.jpg ..\..\JOCN-master\task a\images\garden_veggie straws_zesty ranch.jpg ..\..\JOCN-master\task a\images\larabar_apple_pie_bar.jpg,3,1.35444384583,..\..\JOCN-master\task a\images\annie's_honey_bunny_grahams.jpg,3.01039075258,4,5,4.06431343948,0,1
1,0.75,3,1.0 0.75 1.25 1.5 0.5 1.75,0.75,1.64257745279,$1.75,2.24855203598,7,7,3.33419595828,0,1
2,0.5,6,..\..\JOCN-master\task a\images\pepperidge farms-goldish-cheddar.jpg ..\..\JOCN-master\task a\images\welch's_mixed fruit_fruit snacks.jpg ..\..\JOCN-master\task a\images\stonyfield_fruit_snacks.jpg ..\..\JOCN-master\task a\images\cheez-it_white_cheddar.JPG ..\..\JOCN-master\task a\images\nestle_babyruth_bar.jpg ..\..\JOCN-master\task a\images\nabisco_chips ahhoy_mini.jpg,6,1.16392926892,..\..\JOCN-master\task a\images\welch's_mixed fruit_fruit snacks.jpg,3.48473472433,5,7,3.11071427961,0,1
3,1.0,2,1.75 1.5 1.25 1.0 0.5 0.75,1.0,5.12000406161e-06,$0.5,5.12000406161e-06,n/a,n/a,,1,1
2,1.75,3,..\..\JOCN-master\task a\images\kind_dark_chocolate.jpg ..\..\JOCN-master\task a\images\kettle_bbq.jpg ..\..\JOCN-master\task a\images\boulder_kettle_hickory_bbq.jpg,3,1.74800391169,..\..\JOCN-master\task a\images\boulder_kettle_hickory_bbq.jpg,3.20830088298,5,2,n/a,1,1
2,1.75,3,..\..\JOCN-master\task a\images\jacklinks_beef_stick.jpg ..\..\JOCN-master\task a\images\cheez itz_original.jpg ..\..\JOCN-master\task a\images\eatrageous_sea_salt.jpg,3,0.930182562093,..\..\JOCN-master\task a\images\eatrageous_sea_salt.jpg,1.60131310896,4,4,3.12792885248,0,1
2,0.5,3,..\..\JOCN-master\task a\images\pringles_the original_potato crisps.jpg ..\..\JOCN-master\task a\images\krave_jerky_original.jpg ..\..\JOCN-master\task a\images\nuture valley_crunchy_bar.jpg,3,1.86607790476,..\..\JOCN-master\task a\images\pringles_the original_potato crisps.jpg,1.06344417753,7,7,2.43849886194,0,1
2,0.75,3,0.5 0.75,0.75,1.16487646865,$0.75,2.63267480669,7,7,2.74830144047,0,1
7,1.25,2,..\..\JOCN-master\task a\images\annie's_chocolate_bunny_grahams.jpg ..\..\JOCN-master\task a\images\starburst_verry berry_candy.jpg,2,5.68889663555e-06,..\..\JOCN-master\task a\images\starburst_verry berry_candy.jpg,8.53333040141e-06,n/a,n/a,,1,2
6,1.0,12,1.25 1.75 0.75 1.5 1.0 0.5,1.0,1.39601026959,$1.75,2.46622991184,7,7,3.1127224568,0,2
5,1.0,6,..\..\JOCN-master\task a\images\planters_salted_cashews.jpg ..\..\JOCN-master\task a\images\m&m's_milk_chocholate.jpg ..\..\JOCN-master\task a\images\jacklinks_small_batch.jpg ..\..\JOCN-master\task a\images\annie's_chocolate_chip_bunny_grahams.jpg ..\..\JOCN-master\task a\images\baked_ruffles_cheddar &sour.JPG ..\..\JOCN-master\task a\images\slim_jim.jpg,6,1.54824034186,..\..\JOCN-master\task a\images\m&m's_milk_chocholate.jpg,1.53475483455,6,7,3.97534151812,0,2
6,1.0,2,1.5 0.75 1.75 1.0,1.0,1.90320358309,$1.75,1.08184602117,7,7,2.88620405016,0,2
2,1.25,12,..\..\JOCN-master\task a\images\starburst_favereds_candy.jpg ..\..\JOCN-master\task a\images\garden_veggie straws_zesty ranch.jpg ..\..\JOCN-master\task a\images\kettle_salt_vinegar.jpg ..\..\JOCN-master\task a\images\baked_cheetos_crunchy.jpg ..\..\JOCN-master\task a\images\austin_peanut butter_cheese cracker.jpg ..\..\JOCN-master\task a\images\teddy_grahams_chocolate.jpg ..\..\JOCN-master\task a\images\brookside_fruit and nut_bar.jpg ..\..\JOCN-master\task a\images\popchips_ridges_cheddar_sourcream.jpg ..\..\JOCN-master\task a\images\black_forest_gummies.jpg ..\..\JOCN-master\task a\images\garden_veggie straws_cheddar.jpg ..\..\JOCN-master\task a\images\fiber one_chocolate fudge_ brownie.jpg ..\..\JOCN-master\task a\images\nabisco_chips ahhoy_mini.jpg,12,1.21533291653,..\..\JOCN-master\task a\images\black_forest_gummies.jpg,3.52130061618,7,7,3.0245213797,0,1
5,0.5,3,..\..\JOCN-master\task a\images\haribo_gold_bears.jpg ..\..\JOCN-master\task a\images\nabisco_ritz bits_cookies.jpg ..\..\JOCN-master\task a\images\planters_honey roasted_peanuts.jpg,3,1.69052225692,..\..\JOCN-master\task a\images\haribo_gold_bears.jpg,1.6173591844,7,7,2.51620735539,0,2
6,0.75,12,1.5 0.5 1.0 0.75,0.75,1.68243777921,$1.5,2.69986227204,7,7,2.89321674148,0,2
5,1.75,2,1.0 0.5 1.5 1.75 1.25 0.75,1.75,1.29561051147,$1.75,1.74822236496,7,7,2.59951371391,0,2
5,1.0,12,..\..\JOCN-master\task a\images\planters_salted_peanuts.jpg ..\..\JOCN-master\task a\images\nature_valley_granola_cups_peanut_butter.jpg ..\..\JOCN-master\task a\images\pepperidge farms-goldish-cheddar.jpg ..\..\JOCN-master\task a\images\welch's_mixed fruit_fruit snacks.jpg ..\..\JOCN-master\task a\images\doritos_cool ranch_chips.jpg ..\..\JOCN-master\task a\images\haribo_gold_bears.jpg ..\..\JOCN-master\task a\images\nuture valley_crunchy_bar.jpg ..\..\JOCN-master\task a\images\homefree_vanilla_minicookies.jpg ..\..\JOCN-master\task a\images\nabisco_nutter butter_bites.jpg ..\..\JOCN-master\task a\images\keebler_vanilla_sugar_wafers.jpg ..\..\JOCN-master\task a\images\nutrigrain_blueberry_bar.jpg ..\..\JOCN-master\task a\images\ct_crunch_cereal_bar.jpg,12,1.42972261555,..\..\JOCN-master\task a\images\nabisco_nutter butter_bites.jpg,2.19090028346,3,4,n/a,1,2
5,1.0,3,..\..\JOCN-master\task a\images\sensible_portions_cinnamon_apple_straws.jpg ..\..\JOCN-master\task a\images\belvita_golden_oats.JPG ..\..\JOCN-master\task a\images\keebler_chips_deluxe.jpg,3,1.52721933447,..\..\JOCN-master\task a\images\keebler_chips_deluxe.jpg,2.19348246942,4,7,3.26490986242,0,2
2,1.5,12,..\..\JOCN-master\task a\images\fiber one_chocolate fudge_ brownie.jpg ..\..\JOCN-master\task a\images\nestle_butterfinger_bar.jpg ..\..\JOCN-master\task a\images\popchips_sour_cream_and_onion.jpg ..\..\JOCN-master\task a\images\keebler_elfin_cookies.jpg ..\..\JOCN-master\task a\images\barnum's_animal_crackers.jpg ..\..\JOCN-master\task a\images\boulder_kettle_sea_salt.jpg ..\..\JOCN-master\task a\images\swedish fish_original_candy.jpg ..\..\JOCN-master\task a\images\kettle_jalepeno.jpg ..\..\JOCN-master\task a\images\cascadian_farm_granola.jpg ..\..\JOCN-master\task a\images\sourpatchkids_original_candy.jpg ..\..\JOCN-master\task a\images\baked_cheetos_crunchy.jpg ..\..\JOCN-master\task a\images\popchips_ridges_perfectly_salted.jpg,12,1.07806120446,..\..\JOCN-master\task a\images\baked_cheetos_crunchy.jpg,3.06471678161,5,6,3.54633342684,0,1
8,1.75,3,1.0 1.25 1.75 0.5,1.75,5.68889663555e-06,$1.0,5.12000406161e-06,n/a,n/a,,1,2
1,1.0,3,..\..\JOCN-master\task a\images\keebler_fudge_stripes.jpg ..\..\JOCN-master\task a\images\fritos_original_corn chips.jpg ..\..\JOCN-master\task a\images\kettle_original.jpg,3,2.73525852864,..\..\JOCN-master\task a\images\fritos_original_corn chips.jpg,3.05386750467,5,6,2.91761979234,0,1
6,0.75,6,0.75 1.25 1.5,0.75,2.32751436019,$1.25,3.28287195507,7,7,2.27814733423,0,2
4,0.75,2,..\..\JOCN-master\task a\images\krave_jerky_chili_lime.jpg ..\..\JOCN-master\task a\images\nestle_babyruth_bar.jpg,2,5.68889663555e-06,..\..\JOCN-master\task a\images\krave_jerky_chili_lime.jpg,1.53600121848e-05,n/a,n/a,,1,1
6,1.25,3,..\..\JOCN-master\task a\images\kettle_bbq.jpg ..\..\JOCN-master\task a\images\pirates booty_aged white cheddar_ corn puffs.jpg ..\..\JOCN-master\task a\images\austin_peanut_butter.jpg,3,2.75734506457,..\..\JOCN-master\task a\images\austin_peanut_butter.jpg,2.20350059989,4,7,3.75961663728,0,2
4,0.75,2,1.25 0.5 0.75,0.75,5.68886753172e-06,$1.25,4.55111148767e-06,n/a,n/a,,1,1
1,0.75,3,..\..\JOCN-master\task a\images\grandmas_chocolate brownie_cookie.jpg ..\..\JOCN-master\task a\images\sun chips_garden salsa_chips.jpg ..\..\JOCN-master\task a\images\stonyfield_fruit_snacks.jpg,3,1.36828149523,..\..\JOCN-master\task a\images\sun chips_garden salsa_chips.jpg,1.88630815677,7,6,3.36077671516,0,1
5,0.75,12,0.5 0.75 1.5 1.0 1.75 1.25,0.75,1.44577608653,$1.75,1.71679183168,7,7,3.42750565617,0,2
3,1.25,3,1.5 1.0 1.25 0.75,1.25,5.68886753172e-06,$1.5,4.55111148767e-06,n/a,n/a,,1,1
8,0.75,3,..\..\JOCN-master\task a\images\jacklinks_beef_stick.jpg ..\..\JOCN-master\task a\images\larabar_apple_pie_bar.jpg ..\..\JOCN-master\task a\images\hersheys_milk choc_almond.jpg,3,5.68889663555e-06,..\..\JOCN-master\task a\images\larabar_apple_pie_bar.jpg,7.39554525353e-06,n/a,n/a,,1,2
5,1.75,12,..\..\JOCN-master\task a\images\popchips_sour_cream_and_onion.jpg ..\..\JOCN-master\task a\images\poptarts_strawberry_frosted.jpg ..\..\JOCN-master\task a\images\annie's_cheddar_bunnies.jpg ..\..\JOCN-master\task a\images\basils_duplex_sandwich_cremes.jpg ..\..\JOCN-master\task a\images\swedish fish_original_candy.jpg ..\..\JOCN-master\task a\images\kar's_yogurt apple_nut mix.jpg ..\..\JOCN-master\task a\images\planters_salted_cashews.jpg ..\..\JOCN-master\task a\images\homefree_doublechocolatechip_minicookies.jpg ..\..\JOCN-master\task a\images\special_k_pastry_crisps_blueberry.jpg ..\..\JOCN-master\task a\images\lance_van-o_cookies.jpg ..\..\JOCN-master\task a\images\krave_jerky_black_cherry_bbq.jpg ..\..\JOCN-master\task a\images\m&m's_peanut_butter.jpg,12,2.02139021613,..\..\JOCN-master\task a\images\poptarts_strawberry_frosted.jpg,3.88935341814,4,6,2.69638977526,0,2
5,1.5,12,1.0 1.5,1.5,1.82964513288,$1.5,2.73253924053,7,7,2.33186123893,0,2
3,0.5,3,0.5 0.75,0.5,5.68889663555e-06,$0.5,5.12000406161e-06,n/a,n/a,,1,1
2,1.75,3,..\..\JOCN-master\task a\images\pepperidge farms-goldish-cheddar.jpg ..\..\JOCN-master\task a\images\lays_kc masterpiece_barbecue chips.jpg ..\..\JOCN-master\task a\images\keebler_cheese_and_peanut_butter.jpg,3,1.82631656496,..\..\JOCN-master\task a\images\lays_kc masterpiece_barbecue chips.jpg,3.92743824286,6,6,4.27300458011,0,1
6,1.5,2,..\..\JOCN-master\task a\images\milkyway_orginal_candy.jpg ..\..\JOCN-master\task a\images\reeses_peanut butter cups_milk choc.jpg,2,1.63517564154,..\..\JOCN-master\task a\images\reeses_peanut butter cups_milk choc.jpg,1.73513109758,7,7,3.17361118618,0,2
1,1.0,6,..\..\JOCN-master\task a\images\lance_choc-o_cookies.jpg ..\..\JOCN-master\task a\images\ritz_toasted_chips.jpg ..\..\JOCN-master\task a\images\nutrigrain_strawberry_bar.jpg ..\..\JOCN-master\task a\images\nestle_babyruth_bar.jpg ..\..\JOCN-master\task a\images\nabisco_nutter butter_cookies and crackers.jpg ..\..\JOCN-master\task a\images\keebler_vanilla_sugar_wafers.jpg,6,2.65268489879,..\..\JOCN-master\task a\images\nabisco_nutter butter_cookies and crackers.jpg,1.85382119715,7,7,1.84307033796,0,1
7,1.25,3,..\..\JOCN-master\task a\images\annie's_chocolate_chip_bunny_grahams.jpg ..\..\JOCN-master\task a\images\clif_z_bar.jpg ..\..\JOCN-master\task a\images\garden_veggie straws_sea salt.jpg,3,5.68889663555e-06,..\..\JOCN-master\task a\images\garden_veggie straws_sea salt.jpg,1.02399790194e-05,n/a,n/a,,1,2
1,1.75,2,1.5 1.75,1.75,1.57462426322,$1.75,0.750518968765,7,7,3.63981037802,0,1
1,1.0,6,..\..\JOCN-master\task a\images\nabisco_nutter butter_cookies and crackers.jpg ..\..\JOCN-master\task a\images\skittles_original_candy.jpg ..\..\JOCN-master\task a\images\welch's_tropical_fruits.jpg ..\..\JOCN-master\task a\images\homefree_doublechocolatechip_minicookies.jpg ..\..\JOCN-master\task a\images\annie's_chocolate_bunny_grahams.jpg ..\..\JOCN-master\task a\images\nature_valley_granola_cups_almond_butter.jpg,6,1.23149333859,..\..\JOCN-master\task a\images\skittles_original_candy.jpg,3.58324918521,5,7,2.44091493235,0,1
6,0.5,6,..\..\JOCN-master\task a\images\fiber one_chocolate fudge_ brownie.jpg ..\..\JOCN-master\task a\images\planters_honey roasted_peanuts.jpg ..\..\JOCN-master\task a\images\doritos_nacho cheesier_chips.jpg ..\..\JOCN-master\task a\images\cheez-it_white_cheddar.JPG ..\..\JOCN-master\task a\images\cheez itz_original.jpg ..\..\JOCN-master\task a\images\larabar_apple_pie_bar.jpg,6,1.43978910157,..\..\JOCN-master\task a\images\doritos_nacho cheesier_chips.jpg,2.53928261992,6,7,n/a,1,2
4,1.5,3,0.5 1.5 1.75,1.5,5.68889663555e-06,$0.5,3.98221891373e-06,n/a,n/a,,1,1
4,1.0,6,..\..\JOCN-master\task a\images\fritos_original_corn chips.jpg ..\..\JOCN-master\task a\images\fiber one_chocolate fudge_ brownie.jpg ..\..\JOCN-master\task a\images\grandmas_vanilla sandwhich creme_cookies.jpg ..\..\JOCN-master\task a\images\nestle_babyruth_bar.jpg ..\..\JOCN-master\task a\images\emerald_sriracha_cashews.jpg ..\..\JOCN-master\task a\images\nutrigrain_apple cinnamon_bar.jpg,6,5.12000406161e-06,..\..\JOCN-master\task a\images\nutrigrain_apple cinnamon_bar.jpg,9.10222297534e-06,n/a,n/a,,1,1
6,1.75,12,1.75 1.5 1.25,1.75,2.00844515316,$1.75,1.06643482557,7,7,2.82975265288,0,2
1,0.5,6,..\..\JOCN-master\task a\images\snickers_almond_bar.jpg ..\..\JOCN-master\task a\images\nabisco_mini_ritz.jpg ..\..\JOCN-master\task a\images\keebler_vanilla_sugar_wafers.jpg ..\..\JOCN-master\task a\images\this_popcorn_is_awesome_crushed_pepper.jpg ..\..\JOCN-master\task a\images\austin_peanut_butter.jpg ..\..\JOCN-master\task a\images\annie's_chocolate_bunny_grahams.jpg,6,1.14276945271,..\..\JOCN-master\task a\images\snickers_almond_bar.jpg,2.48306560481,5,7,2.82309324143,0,1
8,1.0,12,..\..\JOCN-master\task a\images\belvita_banana_bread.jpg ..\..\JOCN-master\task a\images\homefree_doublechocolatechip_minicookies.jpg ..\..\JOCN-master\task a\images\homefree_chocolatechip_minicookies.jpg ..\..\JOCN-master\task a\images\emerald_cashews.jpg ..\..\JOCN-master\task a\images\mini_cheese_nips.jpg ..\..\JOCN-master\task a\images\fig_newtons.jpg ..\..\JOCN-master\task a\images\eatrageous_sea_salt.jpg ..\..\JOCN-master\task a\images\baked_cheetos_crunchy.jpg ..\..\JOCN-master\task a\images\popchips_ridges_cheddar_sourcream.jpg ..\..\JOCN-master\task a\images\special_k_pastry_crisps_strawberry.jpg ..\..\JOCN-master\task a\images\nature_valley_granola_cups_peanut_butter.jpg ..\..\JOCN-master\task a\images\quaker_chewy_dark choc chunk.jpg,12,5.68889663555e-06,..\..\JOCN-master\task a\images\emerald_cashews.jpg,8.53333040141e-06,n/a,n/a,,1,2
6,0.75,12,1.0 0.75,0.75,1.55189772745,$1.0,3.99801002725,7,7,3.06914842478,0,2
5,1.0,6,..\..\JOCN-master\task a\images\kettle_salt_pepper.jpg ..\..\JOCN-master\task a\images\boulder_kettle_sea_salt.jpg ..\..\JOCN-master\task a\images\larabar_peanut putter_bar.jpg ..\..\JOCN-master\task a\images\kind_dark_chocolate.jpg ..\..\JOCN-master\task a\images\welch's_white_grape_raspberry.jpg ..\..\JOCN-master\task a\images\stonyfield_fruit_snacks.jpg,6,2.03573645206,..\..\JOCN-master\task a\images\welch's_white_grape_raspberry.jpg,2.89183434186,5,7,3.54628734684,0,2
2,0.5,6,..\..\JOCN-master\task a\images\sunchips_harvest cheddar_chips.jpg ..\..\JOCN-master\task a\images\lays_kc masterpiece_barbecue chips.jpg ..\..\JOCN-master\task a\images\nutrigrain_apple cinnamon_bar.jpg ..\..\JOCN-master\task a\images\fiber one_oats and choc_chewy bar.jpg ..\..\JOCN-master\task a\images\welch's_mixed fruit_fruit snacks.jpg ..\..\JOCN-master\task a\images\grandma's_peanut butter_cookies.jpg,6,1.34258592923,..\..\JOCN-master\task a\images\welch's_mixed fruit_fruit snacks.jpg,4.407414213,6,7,4.13616863682,0,1
5,0.75,12,..\..\JOCN-master\task a\images\snickers_milk chocolate_candy bar.jpg ..\..\JOCN-master\task a\images\hersey_milk_chocolate.jpg ..\..\JOCN-master\task a\images\wheat_thins.jpg ..\..\JOCN-master\task a\images\m&m's_peanut_butter.jpg ..\..\JOCN-master\task a\images\starburst_favereds_candy.jpg ..\..\JOCN-master\task a\images\jacklinks_beef_steak.jpg ..\..\JOCN-master\task a\images\fig_newtons.jpg ..\..\JOCN-master\task a\images\special_k_pastry_crisps_strawberry.jpg ..\..\JOCN-master\task a\images\jacklinks_beef_stick.jpg ..\..\JOCN-master\task a\images\nutrigrain_apple cinnamon_bar.jpg ..\..\JOCN-master\task a\images\austin_peanut_butter.jpg ..\..\JOCN-master\task a\images\garden_veggie straws_sea salt.jpg,12,2.05876563664,..\..\JOCN-master\task a\images\m&m's_peanut_butter.jpg,3.5585423478,5,7,3.68331443676,0,2
1,1.5,12,0.75 1.0 1.5,1.5,1.66395799781,$1.5,3.68199632157,7,7,2.25776405114,0,1
2,1.25,12,..\..\JOCN-master\task a\images\emerald_dark_chocolate_almonds.jpg ..\..\JOCN-master\task a\images\kettle_salt_vinegar.jpg ..\..\JOCN-master\task a\images\annie's_chocolate_bunny_grahams.jpg ..\..\JOCN-master\task a\images\lays_classic_potato chips.jpg ..\..\JOCN-master\task a\images\popchips_ridges_cheddar_sourcream.jpg ..\..\JOCN-master\task a\images\grandma's_peanut butter_cookies.jpg ..\..\JOCN-master\task a\images\lance_toasty_with_pb.jpg ..\..\JOCN-master\task a\images\nutrigrain_apple cinnamon_bar.jpg ..\..\JOCN-master\task a\images\mini_fudge_stripes.jpg ..\..\JOCN-master\task a\images\emerald_sriracha_cashews.jpg ..\..\JOCN-master\task a\images\welch's_tropical_fruits.jpg ..\..\JOCN-master\task a\images\kashi_chocolate almond _bars.jpg,12,1.53172891543,..\..\JOCN-master\task a\images\lays_classic_potato chips.jpg,3.70564502594,7,7,2.97532160702,0,1
5,1.0,6,1.0 1.75 0.75 0.5,1.0,1.0770554092,$1.75,3.03326007942,7,7,2.69226817641,0,2
1,0.5,2,..\..\JOCN-master\task a\images\cheetos_crunchy_chips.jpg ..\..\JOCN-master\task a\images\emerald_dark_chocolate_almonds.jpg,2,1.375353351,..\..\JOCN-master\task a\images\emerald_dark_chocolate_almonds.jpg,1.69887354344,6,4,n/a,1,1
1,1.25,12,..\..\JOCN-master\task a\images\kind_dark_chocolate.jpg ..\..\JOCN-master\task a\images\haribo_gold_bears.jpg ..\..\JOCN-master\task a\images\skittles_sour_candy.jpg ..\..\JOCN-master\task a\images\grandmas_chocolate chip_cookies.jpg ..\..\JOCN-master\task a\images\garden_veggie straws_zesty ranch.jpg ..\..\JOCN-master\task a\images\belvita_blueberry.JPG ..\..\JOCN-master\task a\images\lance_toasty_with_pb.jpg ..\..\JOCN-master\task a\images\nabisco_oreo_mini.jpg ..\..\JOCN-master\task a\images\austin_peanut_butter.jpg ..\..\JOCN-master\task a\images\swedish fish_original_candy.jpg ..\..\JOCN-master\task a\images\planters_salted_peanuts.jpg ..\..\JOCN-master\task a\images\quaker_chewy_dark choc chunk.jpg,12,1.27122623395,..\..\JOCN-master\task a\images\swedish fish_original_candy.jpg,2.53705769611,5,7,3.57585420064,0,1
3,1.75,12,..\..\JOCN-master\task a\images\austin_peanut_butter.jpg ..\..\JOCN-master\task a\images\homefree_chocolatechip_minicookies.jpg ..\..\JOCN-master\task a\images\fritos_original_corn chips.jpg ..\..\JOCN-master\task a\images\pringles_sour cream and onion_potato crisps.jpg ..\..\JOCN-master\task a\images\wheat_thins.jpg ..\..\JOCN-master\task a\images\nabisco_mini_ritz.jpg ..\..\JOCN-master\task a\images\basils_peanut_butter.jpg ..\..\JOCN-master\task a\images\nature_valley_sweet_and_salty.jpg ..\..\JOCN-master\task a\images\chips_ahoy_thin_crisps.jpg ..\..\JOCN-master\task a\images\poptarts_strawberry_frosted.jpg ..\..\JOCN-master\task a\images\luke's_organic_chips.jpg ..\..\JOCN-master\task a\images\austin_lemon ohs_lemon cookies.jpg,12,5.12000406161e-06,..\..\JOCN-master\task a\images\fritos_original_corn chips.jpg,1.64977682289e-05,n/a,n/a,,1,1
7,1.75,6,0.75 1.75,1.75,5.12000406161e-06,$1.75,4.55111148767e-06,n/a,n/a,,1,2
7,0.5,12,0.5 1.25 1.0,0.5,5.68889663555e-06,$1.0,4.55111148767e-06,n/a,n/a,,1,2
2,0.5,3,..\..\JOCN-master\task a\images\m&m's_milk_chocholate.jpg ..\..\JOCN-master\task a\images\nestle_butterfinger_cups.jpg ..\..\JOCN-master\task a\images\skittles_sour_candy.jpg,3,1.57712339141,..\..\JOCN-master\task a\images\nestle_butterfinger_cups.jpg,2.12907971439,5,7,2.60958019996,0,1
5,1.75,3,..\..\JOCN-master\task a\images\homefree_doublechocolatechip_minicookies.jpg ..\..\JOCN-master\task a\images\kars_raisin_almond_cashew_mix.jpg ..\..\JOCN-master\task a\images\nature_valley_granola_cups_almond_butter.jpg,3,1.58691737973,..\..\JOCN-master\task a\images\nature_valley_granola_cups_almond_butter.jpg,1.89901201095,4,7,3.03948599767,0,2
6,1.25,2,1.0 1.25,1.25,1.1467431405,$1.25,2.2495498668,7,7,2.86560458934,0,2
2,1.0,12,..\..\JOCN-master\task a\images\teddy_grahams_chocolate.jpg ..\..\JOCN-master\task a\images\fritos_original_corn chips.jpg ..\..\JOCN-master\task a\images\poptarts_strawberry_frosted.jpg ..\..\JOCN-master\task a\images\basils_duplex_sandwich_cremes.jpg ..\..\JOCN-master\task a\images\welch's_mixed fruit_fruit snacks.jpg ..\..\JOCN-master\task a\images\mini_fudge_stripes.jpg ..\..\JOCN-master\task a\images\annie's_chocolate_bunny_grahams.jpg ..\..\JOCN-master\task a\images\poptarts_brown_sugar.jpg ..\..\JOCN-master\task a\images\nutrigrain_strawberry_bar.jpg ..\..\JOCN-master\task a\images\nutrigrain_apple cinnamon_bar.jpg ..\..\JOCN-master\task a\images\larabar_apple_pie_bar.jpg ..\..\JOCN-master\task a\images\larabar_peanut putter_bar.jpg,12,1.18063354862,..\..\JOCN-master\task a\images\nutrigrain_apple cinnamon_bar.jpg,n/a,6,1,n/a,1,1
6,1.0,12,1.25 1.0 1.75 0.75,1.0,1.32215827279,$1.75,1.29820293741,7,7,2.31442650611,0,2
6,1.0,3,..\..\JOCN-master\task a\images\garden_veggie straws_zesty ranch.jpg ..\..\JOCN-master\task a\images\keebler_fudge_stripes.jpg ..\..\JOCN-master\task a\images\3 musketeers_candy bar.jpg,3,1.72375730524,..\..\JOCN-master\task a\images\garden_veggie straws_zesty ranch.jpg,2.22732053979,4,7,3.25123719077,0,2
5,1.25,6,0.5 1.25 1.0,1.25,1.30592787743,$1.25,2.04948307926,7,7,2.86506983393,0,2
6,0.75,2,..\..\JOCN-master\task a\images\garden_veggie straws_sea salt.jpg ..\..\JOCN-master\task a\images\sensible_portions_cinnamon_apple_straws.jpg,2,1.65700902199,..\..\JOCN-master\task a\images\sensible_portions_cinnamon_apple_straws.jpg,1.33408445606,4,7,2.6957509132,0,2
5,0.5,12,1.0 1.5 0.5 1.25,0.5,1.94061541246,$1.5,2.69822501027,7,7,2.59286568026,0,2
1,0.5,2,..\..\JOCN-master\task a\images\cheetos_crunchy_chips.jpg ..\..\JOCN-master\task a\images\popchips_ridges_tangy_bbq.jpg,2,0.983816253487,..\..\JOCN-master\task a\images\cheetos_crunchy_chips.jpg,1.389464067,6,7,2.80463906002,0,1
8,1.25,3,..\..\JOCN-master\task a\images\black_forest_gummies.jpg ..\..\JOCN-master\task a\images\popchips_barbeque.jpg ..\..\JOCN-master\task a\images\sun chips_french onion_chips.jpg,3,5.68889663555e-06,..\..\JOCN-master\task a\images\popchips_barbeque.jpg,9.67111554928e-06,n/a,n/a,,1,2
1,0.5,3,..\..\JOCN-master\task a\images\skittles_sour_candy.jpg ..\..\JOCN-master\task a\images\stonyfield_fruit snacks.jpg ..\..\JOCN-master\task a\images\grandmas_chocolate chip_cookies.jpg,3,1.98261532938,..\..\JOCN-master\task a\images\skittles_sour_candy.jpg,1.4519286181,7,7,3.15529012471,0,1
4,1.25,6,..\..\JOCN-master\task a\images\oreo_thin_crisps.jpg ..\..\JOCN-master\task a\images\kind_dark_chocolate.jpg ..\..\JOCN-master\task a\images\cascadian_farm_granola.jpg ..\..\JOCN-master\task a\images\famous_amos_chocolate_chip.jpg ..\..\JOCN-master\task a\images\teddy_grahams_chocolate.jpg ..\..\JOCN-master\task a\images\sensible_portions_cinnamon_apple_straws.jpg,6,5.68889663555e-06,..\..\JOCN-master\task a\images\teddy_grahams_chocolate.jpg,8.53333040141e-06,n/a,n/a,,1,1
3,1.0,3,..\..\JOCN-master\task a\images\welch's_tropical_fruits.jpg ..\..\JOCN-master\task a\images\larabar_peanut putter_bar.jpg ..\..\JOCN-master\task a\images\homefree_vanilla_minicookies.jpg,3,5.68886753172e-06,..\..\JOCN-master\task a\images\welch's_tropical_fruits.jpg,7.39554525353e-06,n/a,n/a,,1,1
5,1.25,6,1.75 0.75 1.5 1.25 0.5 1.0,1.25,2.74140878467,$1.75,2.06638191891,7,7,2.81703059428,0,2
8,0.5,2,1.25 0.75 0.5 1.75 1.5 1.0,0.5,5.12000406161e-06,$1.5,7.39554525353e-06,n/a,n/a,,1,2
6,1.25,2,..\..\JOCN-master\task a\images\nabisco_ritz bits_cookies.jpg ..\..\JOCN-master\task a\images\sourpatch_watermelon_candy.jpg,2,1.35876683128,..\..\JOCN-master\task a\images\sourpatch_watermelon_candy.jpg,1.88127235376,4,7,2.90697303979,0,2
2,1.75,3,..\..\JOCN-master\task a\images\annie's_cheddar_bunnies.jpg ..\..\JOCN-master\task a\images\lays_classic_potato chips.jpg ..\..\JOCN-master\task a\images\cheez-it_white_cheddar.JPG,3,1.1214292988,..\..\JOCN-master\task a\images\lays_classic_potato chips.jpg,1.56498444374,7,7,2.35751812052,0,1
5,1.0,12,..\..\JOCN-master\task a\images\cliff_chocolate chip_bar.jpg ..\..\JOCN-master\task a\images\hersey_milk_chocolate.jpg ..\..\JOCN-master\task a\images\homefree_chocolatechip_minicookies.jpg ..\..\JOCN-master\task a\images\larabar_cashew_cookie_bar.jpg ..\..\JOCN-master\task a\images\keebler_fudge_stripes.jpg ..\..\JOCN-master\task a\images\twix_milk chocolate_cookie bars.jpg ..\..\JOCN-master\task a\images\grandmas_chocolate chip_cookies.jpg ..\..\JOCN-master\task a\images\nature_valley_chewy.jpg ..\..\JOCN-master\task a\images\stonyfield_fruit snacks.jpg ..\..\JOCN-master\task a\images\basils_duplex_sandwich_cremes.jpg ..\..\JOCN-master\task a\images\baked_lays_sour cream and onion.jpg ..\..\JOCN-master\task a\images\austin_peanut_butter.jpg,12,2.77953855161,..\..\JOCN-master\task a\images\hersey_milk_chocolate.jpg,1.72613298456,5,7,3.10819694703,0,2
6,1.5,3,0.75 1.5 1.0 1.75 1.25 0.5,1.5,1.61042727524,$1.75,1.04999337246,7,7,2.24336604631,0,2
2,1.75,6,..\..\JOCN-master\task a\images\grandmas_chocolate brownie_cookie.jpg ..\..\JOCN-master\task a\images\baked_lays_classic.jpg ..\..\JOCN-master\task a\images\nature_valley_granola_cups_peanut_butter.jpg ..\..\JOCN-master\task a\images\planters_salted_cashews.jpg ..\..\JOCN-master\task a\images\kettle_salt_pepper.jpg ..\..\JOCN-master\task a\images\haribo_gold_bears.jpg,6,2.64747046473,..\..\JOCN-master\task a\images\baked_lays_classic.jpg,3.14948347746,7,7,3.39204909737,0,1
8,0.5,2,1.25 0.5,0.5,5.12000406161e-06,$1.25,6.82668178342e-06,n/a,n/a,,1,2
2,1.75,12,..\..\JOCN-master\task a\images\garden_veggie straws_sea salt.jpg ..\..\JOCN-master\task a\images\austin_peanut_butter.jpg ..\..\JOCN-master\task a\images\popchips_ridges_perfectly_salted.jpg ..\..\JOCN-master\task a\images\planters_honey roasted_peanuts.jpg ..\..\JOCN-master\task a\images\nabisco_nutter butter_cookies and crackers.jpg ..\..\JOCN-master\task a\images\slim_jim.jpg ..\..\JOCN-master\task a\images\welch's_white_grape_raspberry.jpg ..\..\JOCN-master\task a\images\kettle_bbq.jpg ..\..\JOCN-master\task a\images\nature_valley_sweet_and_salty.jpg ..\..\JOCN-master\task a\images\keebler_fudge_stripes.jpg ..\..\JOCN-master\task a\images\nabisco_ritz bits_cookies.jpg ..\..\JOCN-master\task a\images\belvita_blueberry.JPG,12,1.80945982307,..\..\JOCN-master\task a\images\nabisco_nutter butter_cookies and crackers.jpg,2.60830418253,6,7,3.13599797021,0,1
4,1.75,6,1.25 1.75 0.5 0.75 1.5 1.0,1.75,6.25778920949e-06,$0.75,4.55111148767e-06,n/a,n/a,,1,1
1,1.5,6,..\..\JOCN-master\task a\images\welch's_mixed fruit_fruit snacks.jpg ..\..\JOCN-master\task a\images\garden_veggie straws_cheddar.jpg ..\..\JOCN-master\task a\images\kind_almond_butter.jpg ..\..\JOCN-master\task a\images\mini_fudge_stripes.jpg ..\..\JOCN-master\task a\images\cheez itz_original.jpg ..\..\JOCN-master\task a\images\teddy_grahams_chocolate.jpg,6,2.34094525414,..\..\JOCN-master\task a\images\garden_veggie straws_cheddar.jpg,2.44745658385,7,7,3.63724980986,0,1
1,0.75,2,..\..\JOCN-master\task a\images\special_k_cracker_chips.jpg ..\..\JOCN-master\task a\images\skittles_wild berry_candy.jpg,2,1.50152945734,..\..\JOCN-master\task a\images\skittles_wild berry_candy.jpg,1.21276210836,7,7,2.22723122424,0,1
2,0.5,6,..\..\JOCN-master\task a\images\skinny_pop_popcorn.jpg ..\..\JOCN-master\task a\images\nabisco_teddy graham_honey.jpg ..\..\JOCN-master\task a\images\starburst_favereds_candy.jpg ..\..\JOCN-master\task a\images\kind bar_peanut butter_bar.jpg ..\..\JOCN-master\task a\images\stonyfield_fruit snacks.jpg ..\..\JOCN-master\task a\images\boulder_kettle_sea_salt.jpg,6,1.47855374831,..\..\JOCN-master\task a\images\boulder_kettle_sea_salt.jpg,2.63784941856,6,6,3.9685603645,0,1
4,0.5,3,..\..\JOCN-master\task a\images\larabar_peanut putter_bar.jpg ..\..\JOCN-master\task a\images\garden_veggie straws_sea salt.jpg ..\..\JOCN-master\task a\images\famous_amos_chocolate_chip.jpg,3,5.68889663555e-06,..\..\JOCN-master\task a\images\famous_amos_chocolate_chip.jpg,9.67111554928e-06,n/a,n/a,,1,1
6,1.5,12,1.0 1.5 0.5,1.5,1.81611980344,$1.5,1.61599385145,7,7,2.04582569361,0,2
6,0.5,2,..\..\JOCN-master\task a\images\cascadian_farm_granola.jpg ..\..\JOCN-master\task a\images\cheetos_crunchy_chips.jpg,2,1.79011191748,..\..\JOCN-master\task a\images\cheetos_crunchy_chips.jpg,1.08784552166,6,7,2.5263307303,0,2
1,0.75,2,..\..\JOCN-master\task a\images\boulder_kettle_hickory_bbq.jpg ..\..\JOCN-master\task a\images\nabisco_teddy graham_honey.jpg,2,1.96363777033,..\..\JOCN-master\task a\images\boulder_kettle_hickory_bbq.jpg,1.40224529002,6,7,3.35552757885,0,1
5,1.25,6,..\..\JOCN-master\task a\images\popchips_ridges_cheddar_sourcream.jpg ..\..\JOCN-master\task a\images\skittles_original_candy.jpg ..\..\JOCN-master\task a\images\popchips_barbeque.jpg ..\..\JOCN-master\task a\images\quaker_chewy_chocolate chip.jpg ..\..\JOCN-master\task a\images\popchips_sour_cream_and_onion.jpg ..\..\JOCN-master\task a\images\nabisco_oreo_mini.jpg,6,1.24938773352,..\..\JOCN-master\task a\images\nabisco_oreo_mini.jpg,2.69581633541,5,7,2.94689139287,0,2
8,1.75,6,..\..\JOCN-master\task a\images\nabisco_mini_ritz.jpg ..\..\JOCN-master\task a\images\lays_kc masterpiece_barbecue chips.jpg ..\..\JOCN-master\task a\images\lance_toasty_with_pb.jpg ..\..\JOCN-master\task a\images\homefree_doublechocolatechip_minicookies.jpg ..\..\JOCN-master\task a\images\grandmas_chocolate brownie_cookie.jpg ..\..\JOCN-master\task a\images\swedish fish_original_candy.jpg,6,5.68889663555e-06,..\..\JOCN-master\task a\images\nabisco_mini_ritz.jpg,9.67111554928e-06,n/a,n/a,,1,2
2,1.5,12,..\..\JOCN-master\task a\images\m&m's_milk_chocholate.jpg ..\..\JOCN-master\task a\images\keebler_elfin_cookies.jpg ..\..\JOCN-master\task a\images\quakers_popped_rice_crisps.jpg ..\..\JOCN-master\task a\images\baked_lays_barbeque.jpg ..\..\JOCN-master\task a\images\jacklinks_beef_jerky_original.jpg ..\..\JOCN-master\task a\images\oreo_thin_crisps.jpg ..\..\JOCN-master\task a\images\kars_all_energy.jpg ..\..\JOCN-master\task a\images\quaker_chewy_chocolate chip.jpg ..\..\JOCN-master\task a\images\sun chips_original_chips.jpg ..\..\JOCN-master\task a\images\pringles_the original_potato crisps.jpg ..\..\JOCN-master\task a\images\ritz_toasted_chips.jpg ..\..\JOCN-master\task a\images\emerald_natural_almonds.jpg,12,1.70037768525,..\..\JOCN-master\task a\images\emerald_natural_almonds.jpg,3.14069585333,2,4,3.34589231052,0,1
3,0.5,2,0.75 0.5,0.5,5.12000406161e-06,$0.5,5.12000406161e-06,n/a,n/a,,1,1
5,1.0,6,1.75 1.0,1.0,1.62773116367,$1.75,1.31591415012,7,7,2.62280913841,0,2
7,1.25,12,..\..\JOCN-master\task a\images\pirates booty_aged white cheddar_ corn puffs.jpg ..\..\JOCN-master\task a\images\nabisco_chips ahhoy_mini.jpg ..\..\JOCN-master\task a\images\grandmas_vanilla sandwhich creme_cookies.jpg ..\..\JOCN-master\task a\images\garden_veggie straws_zesty ranch.jpg ..\..\JOCN-master\task a\images\annie's_chocolate_bunny_grahams.jpg ..\..\JOCN-master\task a\images\walkers_highlander_shortbread.jpg ..\..\JOCN-master\task a\images\popchips_barbeque.jpg ..\..\JOCN-master\task a\images\emerald_dark_chocolate_almonds.jpg ..\..\JOCN-master\task a\images\kettle_original.jpg ..\..\JOCN-master\task a\images\kind_dark_chocolate.jpg ..\..\JOCN-master\task a\images\this_popcorn_is_awesome_popcorn.jpg ..\..\JOCN-master\task a\images\brookside_fruit and nut_bar.jpg,12,5.68889663555e-06,..\..\JOCN-master\task a\images\annie's_chocolate_bunny_grahams.jpg,9.10222297534e-06,n/a,n/a,,1,2
1,1.5,6,..\..\JOCN-master\task a\images\belvita_blueberry.JPG ..\..\JOCN-master\task a\images\sunchips_harvest cheddar_chips.jpg ..\..\JOCN-master\task a\images\keebler_vanilla_sugar_wafers.jpg ..\..\JOCN-master\task a\images\popchips_ridges_tangy_bbq.jpg ..\..\JOCN-master\task a\images\boulder_kettle_sea_salt.jpg ..\..\JOCN-master\task a\images\grandma's_peanut butter_cookies.jpg,6,2.04391650308,..\..\JOCN-master\task a\images\keebler_vanilla_sugar_wafers.jpg,3.20325882218,5,6,3.63467103726,0,1
8,0.75,12,..\..\JOCN-master\task a\images\keebler_fudge_stripes.jpg ..\..\JOCN-master\task a\images\hersheys_milk choc_almond.jpg ..\..\JOCN-master\task a\images\nestle_butterfinger_bar.jpg ..\..\JOCN-master\task a\images\chips_ahoy_thin_crisps.jpg ..\..\JOCN-master\task a\images\boulder_kettle_sea_salt.jpg ..\..\JOCN-master\task a\images\m&m's_peanut.jpg ..\..\JOCN-master\task a\images\nestle_crunch_bar.jpg ..\..\JOCN-master\task a\images\sourpatch_watermelon_candy.jpg ..\..\JOCN-master\task a\images\nabisco_chips ahhoy_mini.jpg ..\..\JOCN-master\task a\images\popchips_ridges_perfectly_salted.jpg ..\..\JOCN-master\task a\images\belvita_golden_oats.JPG ..\..\JOCN-master\task a\images\nature_valley_chewy.jpg,12,6.82665267959e-06,..\..\JOCN-master\task a\images\nature_valley_chewy.jpg,7.96443782747e-06,n/a,n/a,,1,2
7,1.0,3,..\..\JOCN-master\task a\images\kettle_bbq.jpg ..\..\JOCN-master\task a\images\basils_peanut_butter.jpg ..\..\JOCN-master\task a\images\annie's_honey_bunny_grahams.jpg,3,5.68889663555e-06,..\..\JOCN-master\task a\images\annie's_honey_bunny_grahams.jpg,7.39554525353e-06,n/a,n/a,,1,2
1,0.75,2,..\..\JOCN-master\task a\images\nabisco_teddy graham_honey.jpg ..\..\JOCN-master\task a\images\welch's_white_grape_raspberry.jpg,2,2.49800405392,..\..\JOCN-master\task a\images\welch's_white_grape_raspberry.jpg,1.88766552528,7,7,2.26148230783,0,1
