Trial Type, Money Option, Item Option, Trial Options, Choice 1, Choice 1 RT, Choice 2, Choice 2 RT, Decision Rating , Selected Option Rating, PostChoiceRT, Computer Response, Choosing For
4,0.75,6,1.25 1.5 0.75 1.0,0.75,6.25778920949e-06,$0.75,3.41329723597e-06,n/a,n/a,,1,1
7,0.75,2,..\..\JOCN-master\task a\images\keebler_cheese_and_peanut_butter.jpg ..\..\JOCN-master\task a\images\planters_salted_cashews.jpg,2,5.11994585395e-06,..\..\JOCN-master\task a\images\keebler_cheese_and_peanut_butter.jpg,1.76355242729e-05,n/a,n/a,,1,2
3,1.5,12,0.5 1.5 1.0 1.75 1.25 0.75,1.5,4.5511405915e-06,$1.75,2.84449197352e-06,n/a,n/a,,1,1
2,1.0,2,1.0 1.5,1.0,1.25318235811,$1.5,1.44913403899,3,3,n/a,1,1
7,1.5,6,..\..\JOCN-master\task a\images\nature_valley_sweet_and_salty.jpg ..\..\JOCN-master\task a\images\keebler_fudge_stripes.jpg ..\..\JOCN-master\task a\images\doritos_cool ranch_chips.jpg ..\..\JOCN-master\task a\images\sun chips_original_chips.jpg ..\..\JOCN-master\task a\images\sun chips_french onion_chips.jpg ..\..\JOCN-master\task a\images\m&m's_peanut_butter.jpg,6,6.82659447193e-06,..\..\JOCN-master\task a\images\keebler_fudge_stripes.jpg,1.82043295354e-05,n/a,n/a,,1,2
1,0.5,3,..\..\JOCN-master\task a\images\kitkat_crisp wafers_milk choc.jpg ..\..\JOCN-master\task a\images\keebler_chips_deluxe.jpg ..\..\JOCN-master\task a\images\sourpatchkids_original_candy.jpg,3,1.34161083959,..\..\JOCN-master\task a\images\kitkat_crisp wafers_milk choc.jpg,2.44248715462,7,7,3.20739258267,0,1
1,1.75,3,0.5 1.5 1.75,1.75,1.25710654585,$1.75,0.949991352856,7,7,4.18684435706,0,1
5,0.5,3,..\..\JOCN-master\task a\images\pirates booty_aged white cheddar_ corn puffs.jpg ..\..\JOCN-master\task a\images\haribo_gold_bears.jpg ..\..\JOCN-master\task a\images\keebler_cheese_and_peanut_butter.jpg,3,1.8221844607,..\..\JOCN-master\task a\images\keebler_cheese_and_peanut_butter.jpg,2.35600768216,7,4,n/a,1,2
1,0.5,2,0.5 1.0 0.75,0.5,1.88599091163,$1.0,1.84784812527,7,7,2.81244965363,0,1
2,1.25,3,0.75 1.0 0.5 1.75 1.5 1.25,1.25,1.68854021141,$1.75,0.516051736893,7,7,2.26382738585,0,1
1,1.25,12,..\..\JOCN-master\task a\images\special_k_pastry_crisps_blueberry.jpg ..\..\JOCN-master\task a\images\cheez-it_white_cheddar.JPG ..\..\JOCN-master\task a\images\famous_amos_chocolate_chip.jpg ..\..\JOCN-master\task a\images\welch's_mixed fruit_fruit snacks.jpg ..\..\JOCN-master\task a\images\nutrigrain_apple cinnamon_bar.jpg ..\..\JOCN-master\task a\images\quaker_chewy_chocolate chip.jpg ..\..\JOCN-master\task a\images\nabisco_oreo_mini.jpg ..\..\JOCN-master\task a\images\sun chips_french onion_chips.jpg ..\..\JOCN-master\task a\images\twix_milk chocolate_cookie bars.jpg ..\..\JOCN-master\task a\images\pepperidge farms-goldish-cheddar.jpg ..\..\JOCN-master\task a\images\kitkat_crisp wafers_milk choc.jpg ..\..\JOCN-master\task a\images\reeses_peanut butter cups_milk choc.jpg,12,1.58771964768,..\..\JOCN-master\task a\images\quaker_chewy_chocolate chip.jpg,2.99600697681,7,7,2.84176273271,0,1
8,1.5,2,..\..\JOCN-master\task a\images\nabisco_nutter butter_cookies and crackers.jpg ..\..\JOCN-master\task a\images\pringles_sour cream and onion_potato crisps.jpg,2,6.25778920949e-06,..\..\JOCN-master\task a\images\pringles_sour cream and onion_potato crisps.jpg,1.4222227037e-05,n/a,n/a,,1,2
6,1.5,3,1.5 1.25 1.0,1.5,2.4497535578,$1.5,1.94875686639,7,7,2.09833167982,0,2
1,1.75,3,0.75 1.75 0.5 1.5,1.75,1.56148083764,$1.75,0.899528733222,7,7,2.99908124609,0,1
6,0.75,2,0.5 0.75,0.75,1.99790023523,$0.75,1.66585353622,6,5,3.59698000248,0,2
6,1.75,6,0.5 0.75 1.0 1.75 1.25 1.5,1.75,2.15601064055,$1.75,0.782919258811,7,6,4.11458764761,0,2
3,0.5,3,..\..\JOCN-master\task a\images\keebler_chips_deluxe.jpg ..\..\JOCN-master\task a\images\barnum's_animal_crackers.jpg ..\..\JOCN-master\task a\images\nestle_crunch_bar.jpg,3,7.39539973438e-06,..\..\JOCN-master\task a\images\barnum's_animal_crackers.jpg,1.479126513e-05,n/a,n/a,,1,1
8,1.0,6,0.5 1.0,1.0,5.11994585395e-06,$0.5,5.68875111639e-06,n/a,n/a,,1,2
7,0.75,2,0.5 1.5 0.75 1.75 1.0 1.25,0.75,4.55090776086e-06,$0.5,5.12017868459e-06,n/a,n/a,,1,2
2,1.5,12,..\..\JOCN-master\task a\images\lance_toasty_with_pb.jpg ..\..\JOCN-master\task a\images\sun chips_french onion_chips.jpg ..\..\JOCN-master\task a\images\baked_lays_classic.jpg ..\..\JOCN-master\task a\images\m&m's_milk_chocholate.jpg ..\..\JOCN-master\task a\images\fritos_original_corn chips.jpg ..\..\JOCN-master\task a\images\nabisco_chips ahhoy_mini.jpg ..\..\JOCN-master\task a\images\pirates booty_aged white cheddar_ corn puffs.jpg ..\..\JOCN-master\task a\images\keebler_vanilla_sugar_wafers.jpg ..\..\JOCN-master\task a\images\planters_salted_cashews.jpg ..\..\JOCN-master\task a\images\3 musketeers_candy bar.jpg ..\..\JOCN-master\task a\images\welch's_tropical_fruits.jpg ..\..\JOCN-master\task a\images\nabisco_nutter butter_cookies and crackers.jpg,12,2.18046314293,..\..\JOCN-master\task a\images\m&m's_milk_chocholate.jpg,1.45805363008,7,7,2.10836287751,0,1
2,1.75,12,1.5 1.25 1.0 0.75 1.75 0.5,1.75,1.3911126079,$1.75,1.01618770114,7,7,2.86833889317,0,1
2,0.75,12,..\..\JOCN-master\task a\images\baked_lays_sour cream and onion.jpg ..\..\JOCN-master\task a\images\emerald_natural_almonds.jpg ..\..\JOCN-master\task a\images\skittles_sour_candy.jpg ..\..\JOCN-master\task a\images\annie's_chocolate_chip_bunny_grahams.jpg ..\..\JOCN-master\task a\images\slim_jim.jpg ..\..\JOCN-master\task a\images\nestle_crunch_bar.jpg ..\..\JOCN-master\task a\images\annie's_cheddar_bunnies.jpg ..\..\JOCN-master\task a\images\keebler_chips_deluxe.jpg ..\..\JOCN-master\task a\images\nuture valley_crunchy_bar.jpg ..\..\JOCN-master\task a\images\kellogg's_rice krispies_orignal.jpg ..\..\JOCN-master\task a\images\nutrigrain_apple cinnamon_bar.jpg ..\..\JOCN-master\task a\images\fritos_original_corn chips.jpg,12,1.5587387986,..\..\JOCN-master\task a\images\kellogg's_rice krispies_orignal.jpg,1.97035070788,7,7,2.31002277834,0,1
1,1.25,3,1.25 1.0 0.5 0.75,1.25,1.43210267741,$1.25,1.58251603111,7,7,2.67616292043,0,1
3,0.5,12,..\..\JOCN-master\task a\images\keebler_fudge_stripes.jpg ..\..\JOCN-master\task a\images\doritos_cool ranch_chips.jpg ..\..\JOCN-master\task a\images\quaker_chewy_peanut butter choc chip.jpg ..\..\JOCN-master\task a\images\lance_toast_cheese_with_pb.JPG ..\..\JOCN-master\task a\images\nabisco_teddy graham_honey.jpg ..\..\JOCN-master\task a\images\nutrigrain_strawberry_bar.jpg ..\..\JOCN-master\task a\images\baked_lays_barbeque.jpg ..\..\JOCN-master\task a\images\keebler_cheese_and_peanut_butter.jpg ..\..\JOCN-master\task a\images\cheez itz_original.jpg ..\..\JOCN-master\task a\images\keebler_chips delux_cookies_crackers.jpg ..\..\JOCN-master\task a\images\mini_fudge_stripes.jpg ..\..\JOCN-master\task a\images\kettle_salt_vinegar.jpg,12,5.68898394704e-06,..\..\JOCN-master\task a\images\baked_lays_barbeque.jpg,1.13779678941e-05,n/a,n/a,,1,1
6,1.75,12,..\..\JOCN-master\task a\images\keebler_cheese_and_peanut_butter.jpg ..\..\JOCN-master\task a\images\starburst_favereds_candy.jpg ..\..\JOCN-master\task a\images\kind_almond_butter.jpg ..\..\JOCN-master\task a\images\sun chips_french onion_chips.jpg ..\..\JOCN-master\task a\images\famous_amos_chocolate_chip.jpg ..\..\JOCN-master\task a\images\lance_toast_cheese_with_pb.JPG ..\..\JOCN-master\task a\images\cheez-it_white_cheddar.JPG ..\..\JOCN-master\task a\images\nuture valley_crunchy_bar.jpg ..\..\JOCN-master\task a\images\hersheys_milk choc_almond.jpg ..\..\JOCN-master\task a\images\slim_jim.jpg ..\..\JOCN-master\task a\images\skittles_sour_candy.jpg ..\..\JOCN-master\task a\images\garden_veggie straws_zesty ranch.jpg,12,1.87896287208,..\..\JOCN-master\task a\images\starburst_favereds_candy.jpg,3.83308662567,4,3,2.9753916224,0,2
6,1.5,2,..\..\JOCN-master\task a\images\poptarts_brown_sugar.jpg ..\..\JOCN-master\task a\images\sourpatch_watermelon_candy.jpg,2,0.195700232405,..\..\JOCN-master\task a\images\sourpatch_watermelon_candy.jpg,1.78807281307,3,4,3.86037162039,0,2
2,0.5,2,0.75 0.5 1.5,0.5,1.56421206775,$1.5,1.59924986446,7,7,2.33099141205,0,1
1,1.0,12,..\..\JOCN-master\task a\images\nature valley_oats and honey_crunchy.jpg ..\..\JOCN-master\task a\images\keebler_fudge_stripes.jpg ..\..\JOCN-master\task a\images\baked_lays_sour cream and onion.jpg ..\..\JOCN-master\task a\images\poptarts_brown_sugar.jpg ..\..\JOCN-master\task a\images\sun chips_garden salsa_chips.jpg ..\..\JOCN-master\task a\images\annie's_chocolate_chip_bunny_grahams.jpg ..\..\JOCN-master\task a\images\doritos_cool ranch_chips.jpg ..\..\JOCN-master\task a\images\pringles_the original_potato crisps.jpg ..\..\JOCN-master\task a\images\baked_lays_classic.jpg ..\..\JOCN-master\task a\images\pepperidge farms-goldish-cheddar.jpg ..\..\JOCN-master\task a\images\nature_valley_chewy.jpg ..\..\JOCN-master\task a\images\m&m's_milk_chocholate.jpg,12,1.80823419499,..\..\JOCN-master\task a\images\keebler_fudge_stripes.jpg,2.45990023972,7,7,3.24140695063,0,1
2,1.25,3,1.5 1.25 1.0 1.75,1.25,1.60379925999,$1.75,1.03342784452,7,7,2.132906402,0,1
7,1.0,2,..\..\JOCN-master\task a\images\m&m's_peanut.jpg ..\..\JOCN-master\task a\images\belvita_blueberry.JPG,2,5.68898394704e-06,..\..\JOCN-master\task a\images\m&m's_peanut.jpg,1.30843836814e-05,n/a,n/a,,1,2
2,1.0,2,0.5 1.75 0.75 1.0,1.0,1.36458366527,$1.75,1.16543540405,7,7,2.16874007299,0,1
4,1.25,3,..\..\JOCN-master\task a\images\pringles_the original_potato crisps.jpg ..\..\JOCN-master\task a\images\planters_salted_cashews.jpg ..\..\JOCN-master\task a\images\baked_cheetos_crunchy.jpg,3,6.25778920949e-06,..\..\JOCN-master\task a\images\pringles_the original_potato crisps.jpg,1.30843836814e-05,n/a,n/a,,1,1
1,1.5,2,0.5 1.75 1.0 1.5,1.5,1.37100128806,$1.75,0.833514429163,7,7,2.04995232727,0,1
6,0.75,12,..\..\JOCN-master\task a\images\sourpatch_watermelon_candy.jpg ..\..\JOCN-master\task a\images\poptarts_brown_sugar.jpg ..\..\JOCN-master\task a\images\doritos_cool ranch_chips.jpg ..\..\JOCN-master\task a\images\ritz_toasted_chips.jpg ..\..\JOCN-master\task a\images\nabisco_mini_ritz.jpg ..\..\JOCN-master\task a\images\3 musketeers_candy bar.jpg ..\..\JOCN-master\task a\images\garden_veggie straws_zesty ranch.jpg ..\..\JOCN-master\task a\images\twix_milk chocolate_cookie bars.jpg ..\..\JOCN-master\task a\images\pepperidge farms-goldish-cheddar.jpg ..\..\JOCN-master\task a\images\quaker_chewy_peanut butter choc chip.jpg ..\..\JOCN-master\task a\images\starburst_orignal_candy.jpg ..\..\JOCN-master\task a\images\nature_valley_sweet_and_salty.jpg,12,1.69394578272,..\..\JOCN-master\task a\images\pepperidge farms-goldish-cheddar.jpg,3.7824812152,7,5,2.92063845135,0,2
5,1.75,6,1.75 1.5 1.0,1.75,1.54344880232,$1.75,0.949201167794,7,7,1.98702367023,0,2
7,0.5,2,0.75 0.5 1.75,0.5,5.11994585395e-06,$1.75,2.84449197352e-06,n/a,n/a,,1,2
6,0.5,6,..\..\JOCN-master\task a\images\nuture valley_crunchy_bar.jpg ..\..\JOCN-master\task a\images\twix_milk chocolate_cookie bars.jpg ..\..\JOCN-master\task a\images\nature_valley_chewy.jpg ..\..\JOCN-master\task a\images\planters_salted_peanuts.jpg ..\..\JOCN-master\task a\images\welch's_berry.jpg ..\..\JOCN-master\task a\images\sunchips_harvest cheddar_chips.jpg,6,2.21410261374,..\..\JOCN-master\task a\images\nuture valley_crunchy_bar.jpg,3.24719197024,5,5,3.447329527,0,2
6,1.25,12,..\..\JOCN-master\task a\images\sun chips_original_chips.jpg ..\..\JOCN-master\task a\images\doritos_cool ranch_chips.jpg ..\..\JOCN-master\task a\images\reeses_peanut butter cups_milk choc.jpg ..\..\JOCN-master\task a\images\haribo_gold_bears.jpg ..\..\JOCN-master\task a\images\lance_toasty_with_pb.jpg ..\..\JOCN-master\task a\images\annie's_cheddar_bunnies.jpg ..\..\JOCN-master\task a\images\cheetos_crunchy_chips.jpg ..\..\JOCN-master\task a\images\keebler_chips_deluxe.jpg ..\..\JOCN-master\task a\images\belvita_golden_oats.JPG ..\..\JOCN-master\task a\images\pringles_the original_potato crisps.jpg ..\..\JOCN-master\task a\images\quaker_chewy_dark choc chunk.jpg ..\..\JOCN-master\task a\images\nabisco_nutter butter_bites.jpg,12,2.97134227911,..\..\JOCN-master\task a\images\reeses_peanut butter cups_milk choc.jpg,1.44628391135,7,4,2.6386510306,0,2
8,1.0,2,..\..\JOCN-master\task a\images\quaker_chewy_chocolate chip.jpg ..\..\JOCN-master\task a\images\baked_lays_sour cream and onion.jpg,2,5.68898394704e-06,..\..\JOCN-master\task a\images\baked_lays_sour cream and onion.jpg,2.50311568379e-05,n/a,n/a,,1,2
4,0.75,6,0.5 0.75,0.75,5.12017868459e-06,$0.5,3.41329723597e-06,n/a,n/a,,1,1
3,1.25,3,1.25 1.0 1.75,1.25,4.5511405915e-06,$1.0,3.41329723597e-06,n/a,n/a,,1,1
4,1.0,3,..\..\JOCN-master\task a\images\nature valley_oats and honey_crunchy.jpg ..\..\JOCN-master\task a\images\nabisco_nutter butter_cookies and crackers.jpg ..\..\JOCN-master\task a\images\cheetos_crunchy_chips.jpg,3,4.5511405915e-06,..\..\JOCN-master\task a\images\nabisco_nutter butter_cookies and crackers.jpg,1.47910322994e-05,n/a,n/a,,1,1
3,0.75,2,..\..\JOCN-master\task a\images\milkyway_orginal_candy.jpg ..\..\JOCN-master\task a\images\starburst_orignal_candy.jpg,2,4.5511405915e-06,..\..\JOCN-master\task a\images\starburst_orignal_candy.jpg,1.64976809174e-05,n/a,n/a,,1,1
3,0.75,3,..\..\JOCN-master\task a\images\emerald_natural_almonds.jpg ..\..\JOCN-master\task a\images\nabisco_mini_ritz.jpg ..\..\JOCN-master\task a\images\planters_salted_cashews.jpg,3,4.5511405915e-06,..\..\JOCN-master\task a\images\nabisco_mini_ritz.jpg,9.10204835236e-06,n/a,n/a,,1,1
1,1.25,12,0.5 1.25,1.25,1.30243950454,$1.25,1.78249316197,7,7,2.5091118752,0,1
4,1.5,12,0.75 1.75 1.0 0.5 1.25 1.5,1.5,6.82682730258e-06,$0.75,2.84425914288e-06,n/a,n/a,,1,1
1,1.75,12,1.75 0.75 1.5,1.75,1.63773682783,$1.75,1.18323021289,7,7,2.81808790006,0,1
4,1.5,2,0.75 0.5 1.0 1.5 1.75 1.25,1.5,7.96443782747e-06,$0.75,4.5511405915e-06,n/a,n/a,,1,1
2,1.0,3,0.75 1.0,1.0,1.78392789699,$1.0,1.74854421616,7,7,2.37300092843,0,1
1,1.0,3,..\..\JOCN-master\task a\images\baked_lays_barbeque.jpg ..\..\JOCN-master\task a\images\fiber one_chocolate fudge_ brownie.jpg ..\..\JOCN-master\task a\images\planters_salted_peanuts.jpg,3,1.93423259305,..\..\JOCN-master\task a\images\fiber one_chocolate fudge_ brownie.jpg,2.30724376161,4,4,3.47026594379,0,1
5,0.75,2,1.5 0.75,0.75,1.99829675001,$1.5,1.73312849575,7,7,2.30882071843,0,2
3,0.5,6,0.5 1.25 1.75 1.0 1.5 0.75,0.5,8.53347592056e-06,$1.5,2.84449197352e-06,n/a,n/a,,1,1
5,0.75,3,..\..\JOCN-master\task a\images\belvita_golden_oats.JPG ..\..\JOCN-master\task a\images\doritos_nacho cheesier_chips.jpg ..\..\JOCN-master\task a\images\pirates booty_aged white cheddar_ corn puffs.jpg,3,1.79323831387,..\..\JOCN-master\task a\images\doritos_nacho cheesier_chips.jpg,2.31904875138,7,6,3.49502735212,0,2
5,0.5,3,..\..\JOCN-master\task a\images\nutrigrain_apple cinnamon_bar.jpg ..\..\JOCN-master\task a\images\planters_salted_cashews.jpg ..\..\JOCN-master\task a\images\quaker_chewy_chocolate chip.jpg,3,2.17402731557,..\..\JOCN-master\task a\images\quaker_chewy_chocolate chip.jpg,0.993483390892,7,7,2.71437511081,0,2
6,1.75,12,1.0 1.75 1.25 0.5,1.75,1.83601981099,$1.75,1.11586138722,7,7,3.54580684192,0,2
7,1.5,2,..\..\JOCN-master\task a\images\keebler_chips_deluxe.jpg ..\..\JOCN-master\task a\images\belvita_golden_oats.JPG,2,5.11994585395e-06,..\..\JOCN-master\task a\images\belvita_golden_oats.JPG,1.0808929801e-05,n/a,n/a,,1,2
6,1.75,2,1.75 1.0,1.75,1.60027670697,$1.75,0.717208740767,6,7,2.29441932496,0,2
5,1.0,2,1.25 1.0,1.0,1.24162938562,$1.25,0.965827481356,7,7,2.9202260077,0,2
8,1.75,3,0.5 1.0 0.75 1.75 1.5 1.25,1.75,6.82682730258e-06,$1.75,4.5511405915e-06,n/a,n/a,,1,2
7,1.0,3,..\..\JOCN-master\task a\images\belvita_blueberry.JPG ..\..\JOCN-master\task a\images\teddy_grahams_chocolate.jpg ..\..\JOCN-master\task a\images\nabisco_teddy graham_honey.jpg,3,5.68898394704e-06,..\..\JOCN-master\task a\images\belvita_blueberry.JPG,1.13777350634e-05,n/a,n/a,,1,2
7,1.0,2,..\..\JOCN-master\task a\images\nabisco_nutter butter_cookies and crackers.jpg ..\..\JOCN-master\task a\images\fiber one_oats and choc_chewy bar.jpg,2,5.12017868459e-06,..\..\JOCN-master\task a\images\fiber one_oats and choc_chewy bar.jpg,1.59288756549e-05,n/a,n/a,,1,2
1,1.75,2,1.75 0.75,1.75,0.825148934964,$1.75,0.515237089712,7,7,2.06620943244,0,1
1,0.5,6,..\..\JOCN-master\task a\images\m&m's_peanut_butter.jpg ..\..\JOCN-master\task a\images\ritz_toasted_chips.jpg ..\..\JOCN-master\task a\images\chex mix_original_traditional.jpg ..\..\JOCN-master\task a\images\nature valley_oats and honey_crunchy.jpg ..\..\JOCN-master\task a\images\keebler_cheese_and_peanut_butter.jpg ..\..\JOCN-master\task a\images\nabisco_oreo_mini.jpg,6,1.64379263809,..\..\JOCN-master\task a\images\nabisco_oreo_mini.jpg,2.39810310071,7,6,2.34485065565,0,1
2,1.0,12,1.5 1.0 0.75 1.25,1.0,2.32260828209,$0.75,1.56626404589,7,3,1.79736787034,0,1
8,1.75,3,0.75 1.5 1.75,1.75,6.82682730258e-06,$1.5,3.41329723597e-06,n/a,n/a,,1,2
6,0.5,6,..\..\JOCN-master\task a\images\nabisco_chips ahhoy_mini.jpg ..\..\JOCN-master\task a\images\slim_jim.jpg ..\..\JOCN-master\task a\images\nutrigrain_blueberry_bar.jpg ..\..\JOCN-master\task a\images\keebler_chips_deluxe.jpg ..\..\JOCN-master\task a\images\chex mix_original_traditional.jpg ..\..\JOCN-master\task a\images\milkyway_orginal_candy.jpg,6,2.35319225676,..\..\JOCN-master\task a\images\nabisco_chips ahhoy_mini.jpg,2.208596349,6,4,2.6313140851,0,2
6,0.75,2,0.75 1.5,0.75,1.34429883445,$1.5,1.38312826818,7,7,1.95800584368,0,2
1,1.5,12,1.75 0.5 1.5 1.25,1.5,1.14428927726,$1.75,0.849371606717,7,7,2.37351690955,0,1
6,1.25,6,1.25 1.0 0.75,1.25,1.34016415826,$1.25,1.19933314994,7,7,2.31034647534,0,2
7,1.25,3,..\..\JOCN-master\task a\images\fiber one_oats and choc_chewy bar.jpg ..\..\JOCN-master\task a\images\welch's_mixed fruit_fruit snacks.jpg ..\..\JOCN-master\task a\images\kind bar_peanut butter_bar.jpg,3,9.10204835236e-06,..\..\JOCN-master\task a\images\welch's_mixed fruit_fruit snacks.jpg,1.36534217745e-05,n/a,n/a,,1,2
1,0.5,6,1.5 0.5 1.75 1.25,0.5,1.86703500268,$1.25,1.44963409146,7,6,2.41527383984,0,1
3,1.75,3,..\..\JOCN-master\task a\images\skittles_original_candy.jpg ..\..\JOCN-master\task a\images\nutrigrain_apple cinnamon_bar.jpg ..\..\JOCN-master\task a\images\nabisco_chips ahhoy_mini.jpg,3,5.11994585395e-06,..\..\JOCN-master\task a\images\nutrigrain_apple cinnamon_bar.jpg,1.13777350634e-05,n/a,n/a,,1,1
8,1.0,3,1.0 1.5,1.0,5.11994585395e-06,$1.0,3.41329723597e-06,n/a,n/a,,1,2
7,0.75,2,..\..\JOCN-master\task a\images\snyders_mini_pretzels.jpg ..\..\JOCN-master\task a\images\doritos_cool ranch_chips.jpg,2,5.11994585395e-06,..\..\JOCN-master\task a\images\doritos_cool ranch_chips.jpg,1.59286428243e-05,n/a,n/a,,1,2
4,1.5,3,..\..\JOCN-master\task a\images\nabisco_nutter butter_bites.jpg ..\..\JOCN-master\task a\images\sourpatch_watermelon_candy.jpg ..\..\JOCN-master\task a\images\3 musketeers_candy bar.jpg,3,4.5511405915e-06,..\..\JOCN-master\task a\images\sourpatch_watermelon_candy.jpg,1.53600703925e-05,n/a,n/a,,1,1
2,1.25,6,0.5 0.75 1.25 1.5,1.25,1.14566427888,$1.25,2.11520716618,7,7,2.12222894793,0,1
2,1.5,3,1.5 0.75,1.5,1.24992490676,$1.5,1.39854000648,7,7,2.27153752162,0,1
2,0.5,6,0.75 0.5 1.0,0.5,1.14416241529,$1.0,1.84912527818,7,7,2.45685612154,0,1
8,0.5,2,..\..\JOCN-master\task a\images\nuture valley_crunchy_bar.jpg ..\..\JOCN-master\task a\images\welch's_mixed fruit_fruit snacks.jpg,2,7.96443782747e-06,..\..\JOCN-master\task a\images\welch's_mixed fruit_fruit snacks.jpg,1.2515578419e-05,n/a,n/a,,1,2
2,1.25,3,0.75 0.5 1.5 1.25,1.25,1.08177192602,$1.5,1.41639284207,7,7,2.6802697212,0,1
5,1.5,3,0.75 1.75 1.25 1.5,1.5,1.72831798089,$1.75,0.666639739415,7,7,2.6173763352,0,2
6,0.75,2,1.5 1.75 0.75,0.75,1.23807781911,$1.75,0.666545304004,7,7,2.48011509725,0,2
5,0.75,6,1.25 0.75 1.75,0.75,1.40168880019,$1.75,0.783048396464,7,7,2.42291002022,0,2
8,0.5,2,..\..\JOCN-master\task a\images\sun chips_garden salsa_chips.jpg ..\..\JOCN-master\task a\images\doritos_nacho cheesier_chips.jpg,2,6.82659447193e-06,..\..\JOCN-master\task a\images\sun chips_garden salsa_chips.jpg,1.4222227037e-05,n/a,n/a,,1,2
5,0.75,12,..\..\JOCN-master\task a\images\nestle_crunch_bar.jpg ..\..\JOCN-master\task a\images\planters_salted_peanuts.jpg ..\..\JOCN-master\task a\images\skittles_sour_candy.jpg ..\..\JOCN-master\task a\images\nutrigrain_strawberry_bar.jpg ..\..\JOCN-master\task a\images\baked_lays_sour cream and onion.jpg ..\..\JOCN-master\task a\images\famous_amos_chocolate_chip.jpg ..\..\JOCN-master\task a\images\m&m's_milk_chocholate.jpg ..\..\JOCN-master\task a\images\sourpatch_watermelon_candy.jpg ..\..\JOCN-master\task a\images\annie's_chocolate_chip_bunny_grahams.jpg ..\..\JOCN-master\task a\images\combos_cheddar cheese_pretzel.jpg ..\..\JOCN-master\task a\images\doritos_nacho cheesier_chips.jpg ..\..\JOCN-master\task a\images\garden_veggie straws_zesty ranch.jpg,12,1.32065642835,..\..\JOCN-master\task a\images\m&m's_milk_chocholate.jpg,1.47649810906,7,7,2.54784459807,0,2
2,1.25,2,1.0 1.25 0.5,1.25,0.888077591546,$1.25,1.11758227251,7,7,2.52115977998,0,1
7,0.75,6,..\..\JOCN-master\task a\images\nabisco_chips ahhoy_mini.jpg ..\..\JOCN-master\task a\images\keebler_cheese_and_peanut_butter.jpg ..\..\JOCN-master\task a\images\baked_cheetos_crunchy.jpg ..\..\JOCN-master\task a\images\sun chips_garden salsa_chips.jpg ..\..\JOCN-master\task a\images\planters_salted_peanuts.jpg ..\..\JOCN-master\task a\images\lays_kc masterpiece_barbecue chips.jpg,6,5.68898394704e-06,..\..\JOCN-master\task a\images\baked_cheetos_crunchy.jpg,1.19465403259e-05,n/a,n/a,,1,2
1,1.0,12,0.75 1.75 1.25 1.0 1.5 0.5,1.0,1.50344177103,$1.75,0.683886709623,7,7,3.09200166562,0,1
6,1.0,12,1.25 1.0 1.5 1.75,1.0,2.31361644203,$1.75,0.467029541265,7,7,2.09345289832,0,2
4,1.5,2,..\..\JOCN-master\task a\images\kellogg's_rice krispies_orignal.jpg ..\..\JOCN-master\task a\images\nabisco_teddy graham_honey.jpg,2,7.39563256502e-06,..\..\JOCN-master\task a\images\kellogg's_rice krispies_orignal.jpg,1.19467731565e-05,n/a,n/a,,1,1
8,1.25,2,..\..\JOCN-master\task a\images\snyders_mini_pretzels.jpg ..\..\JOCN-master\task a\images\3 musketeers_candy bar.jpg,2,5.11994585395e-06,..\..\JOCN-master\task a\images\3 musketeers_candy bar.jpg,1.36534217745e-05,n/a,n/a,,1,2
1,0.5,2,0.75 0.5,0.5,1.0334033824,$0.75,1.91761310631,7,7,2.76276754797,0,1
6,1.25,3,0.5 1.0 1.25,1.25,1.07008469594,$1.25,1.19994185958,7,7,2.37150646024,0,2
1,1.5,2,0.75 0.5 1.5 1.0 1.75 1.25,1.5,1.01801724429,$1.75,0.90000887448,7,7,1.7178726329,0,1
5,1.75,3,0.5 1.5 1.75 1.0 1.25 0.75,1.75,1.25915283523,$1.75,0.800758441212,7,7,2.31746269227,0,2
2,1.25,6,0.5 1.0 1.25 1.75,1.25,1.24534422252,$1.75,1.83281697286,7,7,2.35606627772,0,1
6,1.75,12,0.75 1.0 1.75,1.75,0.835594282718,$1.75,0.86593648023,7,7,1.93684378802,0,2
2,0.5,3,1.5 0.75 1.25 0.5 1.0 1.75,0.5,1.09185034153,$1.75,1.14945762255,7,7,1.80670104269,0,1
5,0.75,6,0.5 1.25 0.75 1.0,0.75,0.71475911024,$1.25,1.53389262594,7,7,1.97725416068,0,2
5,1.5,6,1.0 1.75 0.5 0.75 1.25 1.5,1.5,0.811149744783,$1.75,2.10017146287,7,7,1.72453715303,0,2
1,0.75,3,1.0 1.75 0.75,0.75,1.11131483596,$1.75,0.666508895345,7,7,1.91771209287,0,1
8,0.5,6,..\..\JOCN-master\task a\images\skittles_sour_candy.jpg ..\..\JOCN-master\task a\images\kind_almond_butter.jpg ..\..\JOCN-master\task a\images\snickers_milk chocolate_candy bar.jpg ..\..\JOCN-master\task a\images\belvita_blueberry.JPG ..\..\JOCN-master\task a\images\nabisco_oreo_mini.jpg ..\..\JOCN-master\task a\images\barnum's_animal_crackers.jpg,6,6.25778920949e-06,..\..\JOCN-master\task a\images\snickers_milk chocolate_candy bar.jpg,1.53600703925e-05,n/a,n/a,,1,2
1,1.25,6,0.75 1.0 1.25,1.25,0.907271864591,$1.25,2.2323587907,7,7,1.81362611335,0,1
1,1.5,12,1.5 0.75 1.0 0.5 1.75 1.25,1.5,0.823098663241,$1.75,1.20032073883,7,7,2.12661222788,0,1
6,0.5,6,1.0 0.5 1.75 1.5 1.25 0.75,0.5,1.45829768293,$1.75,0.749344072537,7,7,1.73692525271,0,2
5,0.75,2,1.25 0.75,0.75,1.39067001315,$1.25,1.96580074355,7,7,2.14212750364,0,2
2,1.75,2,1.75 1.25,1.75,0.857163093286,$1.75,0.666970263002,7,7,4.45879659755,0,1
6,1.75,6,1.5 1.75,1.75,0.867792192148,$1.75,0.716016920982,7,7,1.87513368856,0,2
3,0.75,12,0.5 0.75 1.25 1.0,0.75,1.02398917079e-05,$0.75,3.41329723597e-06,n/a,n/a,,1,1
2,0.75,12,0.75 0.5,0.75,1.64757460402,$0.75,2.48238951061,7,5,1.78256085957,0,1
5,0.75,6,..\..\JOCN-master\task a\images\sunchips_harvest cheddar_chips.jpg ..\..\JOCN-master\task a\images\reeses_peanut butter cups_milk choc.jpg ..\..\JOCN-master\task a\images\m&m's_peanut_butter.jpg ..\..\JOCN-master\task a\images\cheez-it_white_cheddar.JPG ..\..\JOCN-master\task a\images\doritos_cool ranch_chips.jpg ..\..\JOCN-master\task a\images\pringles_sour cream and onion_potato crisps.jpg,6,2.05961829913,..\..\JOCN-master\task a\images\cheez-it_white_cheddar.JPG,0.224375588819,7,7,2.82097272971,0,2
3,0.5,3,0.75 1.5 1.75 0.5,0.5,6.25778920949e-06,$0.75,2.84425914288e-06,n/a,n/a,,1,1
7,1.25,6,..\..\JOCN-master\task a\images\keebler_chips_deluxe.jpg ..\..\JOCN-master\task a\images\fiber one_chocolate fudge_ brownie.jpg ..\..\JOCN-master\task a\images\baked_lays_barbeque.jpg ..\..\JOCN-master\task a\images\snyders_mini_pretzels.jpg ..\..\JOCN-master\task a\images\kettle_salt_vinegar.jpg ..\..\JOCN-master\task a\images\nutrigrain_apple cinnamon_bar.jpg,6,5.11994585395e-06,..\..\JOCN-master\task a\images\keebler_chips_deluxe.jpg,1.19465403259e-05,n/a,n/a,,1,2
1,1.0,2,1.0 1.75 1.25 0.5,1.0,0.906229662243,$1.75,0.932385983411,7,7,1.9104206583,0,1
1,0.75,3,0.75 1.25,0.75,0.841218876187,$1.25,1.79905064008,7,7,2.39716102253,0,1
6,0.5,12,0.5 1.0 1.75,0.5,1.73019474186,$1.75,0.765933408402,7,7,2.62189102848,0,2
6,0.75,2,0.75 1.5,0.75,1.23687917273,$1.5,2.11599109345,7,7,2.17947612284,0,2
8,1.0,6,..\..\JOCN-master\task a\images\starburst_orignal_candy.jpg ..\..\JOCN-master\task a\images\kettle_salt_vinegar.jpg ..\..\JOCN-master\task a\images\m&m's_peanut.jpg ..\..\JOCN-master\task a\images\barnum's_animal_crackers.jpg ..\..\JOCN-master\task a\images\nutrigrain_apple cinnamon_bar.jpg ..\..\JOCN-master\task a\images\wheat_thins.jpg,6,5.68898394704e-06,..\..\JOCN-master\task a\images\m&m's_peanut.jpg,1.6497913748e-05,n/a,n/a,,1,2
2,1.25,6,1.25 1.0,1.25,1.38112350786,$1.25,1.86509566405,7,7,2.05900333147,0,1
5,1.0,3,1.0 0.5,1.0,0.899801799562,$1.0,1.38342465879,7,7,2.08886140538,0,2
5,1.5,6,1.0 1.75 1.5,1.5,1.2131588289,$1.75,0.801470119739,7,7,2.67459279019,0,2
8,0.5,6,1.0 0.5 1.5 1.25,0.5,7.39563256502e-06,$1.5,3.98210249841e-06,n/a,n/a,,1,2
2,0.5,12,1.75 0.5,0.5,1.35346930521,$1.75,1.06590166432,7,7,2.69425980886,0,1
3,1.25,2,..\..\JOCN-master\task a\images\kind bar_peanut butter_bar.jpg ..\..\JOCN-master\task a\images\poptarts_brown_sugar.jpg,2,6.82659447193e-06,..\..\JOCN-master\task a\images\kind bar_peanut butter_bar.jpg,1.13777350634e-05,n/a,n/a,,1,1
7,0.75,12,..\..\JOCN-master\task a\images\fritos_original_corn chips.jpg ..\..\JOCN-master\task a\images\starburst_orignal_candy.jpg ..\..\JOCN-master\task a\images\keebler_vanilla_sugar_wafers.jpg ..\..\JOCN-master\task a\images\nuture valley_crunchy_bar.jpg ..\..\JOCN-master\task a\images\barnum's_animal_crackers.jpg ..\..\JOCN-master\task a\images\skittles_original_candy.jpg ..\..\JOCN-master\task a\images\nestle_crunch_bar.jpg ..\..\JOCN-master\task a\images\snyders_mini_pretzels.jpg ..\..\JOCN-master\task a\images\sun chips_garden salsa_chips.jpg ..\..\JOCN-master\task a\images\swedish fish_original_candy.jpg ..\..\JOCN-master\task a\images\kettle_original.jpg ..\..\JOCN-master\task a\images\chex mix_original_traditional.jpg,12,4.5511405915e-06,..\..\JOCN-master\task a\images\chex mix_original_traditional.jpg,1.4222227037e-05,n/a,n/a,,1,2
6,1.75,2,0.75 1.75,1.75,1.46085255803,$1.75,1.03265529498,7,7,2.77387678809,0,2
2,1.25,2,1.25 1.75 1.5,1.25,1.06019572029,$1.75,0.833204954164,7,7,2.93845089595,0,1
2,0.5,2,1.5 1.75 1.25 0.75 0.5 1.0,0.5,1.02064493648,$1.75,1.2165556578,7,7,2.91069941339,0,1
4,0.5,2,..\..\JOCN-master\task a\images\mini_fudge_stripes.jpg ..\..\JOCN-master\task a\images\combos_cheddar cheese_pretzel.jpg,2,5.11994585395e-06,..\..\JOCN-master\task a\images\mini_fudge_stripes.jpg,1.25153455883e-05,n/a,n/a,,1,1
3,1.5,3,..\..\JOCN-master\task a\images\fritos_original_corn chips.jpg ..\..\JOCN-master\task a\images\pringles_the original_potato crisps.jpg ..\..\JOCN-master\task a\images\belvita_blueberry.JPG,3,4.55090776086e-06,..\..\JOCN-master\task a\images\belvita_blueberry.JPG,1.02398917079e-05,n/a,n/a,,1,1
1,1.0,6,1.75 1.5 1.25 0.75 0.5 1.0,1.0,1.01138515072,$1.75,0.91597015853,7,7,2.4460051565,0,1
6,1.0,2,1.0 0.5 1.25 0.75,1.0,1.1294714578,$1.25,1.71654541767,7,7,2.21783508616,0,2
5,1.5,6,0.5 1.5,1.5,0.917792874854,$1.5,1.16578697646,7,7,2.55263975286,0,2
6,0.75,2,1.75 1.0 1.25 1.5 0.5 0.75,0.75,0.680597969331,$1.75,1.13317264151,7,7,2.12927348469,0,2
4,1.0,3,1.0 1.75 0.5 1.5,1.0,7.96443782747e-06,$1.0,3.98233532906e-06,n/a,n/a,,1,1
4,1.5,6,0.75 0.5 1.25 1.5 1.0 1.75,1.5,5.11994585395e-06,$0.75,4.5511405915e-06,n/a,n/a,,1,1
5,1.75,2,1.75 1.5 0.75,1.75,0.940448260866,$1.75,1.01604661695,7,7,2.06838429067,0,2
5,0.75,2,0.5 1.75 0.75 1.25 1.5 1.0,0.75,0.744325913489,$1.75,0.716437329073,7,7,2.70377957658,0,2
3,0.5,3,..\..\JOCN-master\task a\images\lays_kc masterpiece_barbecue chips.jpg ..\..\JOCN-master\task a\images\mini_fudge_stripes.jpg ..\..\JOCN-master\task a\images\m&m's_milk_chocholate.jpg,3,5.68875111639e-06,..\..\JOCN-master\task a\images\mini_fudge_stripes.jpg,2.27554701269e-05,n/a,n/a,,1,1
3,0.75,2,0.5 0.75 1.25,0.75,6.82659447193e-06,$0.75,3.41329723597e-06,n/a,n/a,,1,1
6,0.5,2,1.5 0.75 0.5 1.25,0.5,1.04124151776,$1.25,1.41652539303,7,7,2.03636387433,0,2
7,0.5,2,0.5 1.75,0.5,7.39539973438e-06,$0.5,3.41329723597e-06,n/a,n/a,,1,2
2,1.0,2,1.0 0.5 0.75,1.0,1.05402328796,$1.0,1.44912379887,7,7,2.25757360272,0,1
2,0.5,6,0.5 1.25 1.75,0.5,0.663529629819,$1.75,1.05023221998,7,7,1.97303016926,0,1
2,1.5,2,1.25 1.5,1.5,0.695527290693,$1.5,1.86551550333,7,7,1.93777960842,0,1
5,1.0,12,1.0 0.75 0.5 1.25 1.5 1.75,1.0,0.859625239391,$1.75,0.750079644145,7,7,2.00215324014,0,2
2,1.5,3,0.75 1.75 1.0 1.5,1.5,0.65658806148,$1.75,0.916924183257,7,7,2.5598464231,0,1
5,0.5,3,1.75 1.5 0.5 1.25,0.5,0.784770419821,$1.75,0.933739936445,7,7,4.21136114351,0,2
2,1.25,3,0.5 1.0 1.5 1.75 1.25 0.75,1.25,0.698995799292,$1.75,0.93469566782,7,7,2.62010301417,0,1
3,1.25,3,1.25 0.5 1.0 1.5,1.25,6.82682730258e-06,$1.25,2.84425914288e-06,n/a,n/a,,1,1
5,0.75,6,0.75 0.5,0.75,0.888025822816,$0.75,2.13282334432,7,7,2.2834471867,0,2
6,1.5,3,1.75 1.5 1.25,1.5,0.893199857092,$1.75,0.849703268148,7,7,2.33995423862,0,2
8,1.0,12,0.5 1.0 0.75 1.5 1.75 1.25,1.0,7.96443782747e-06,$1.5,2.84449197352e-06,n/a,n/a,,1,2
5,0.5,2,1.75 0.5 1.25 1.0 0.75 1.5,0.5,1.10723079089,$1.75,1.08245174703,7,7,2.33702788013,0,2
1,1.25,12,0.75 1.25 1.75,1.25,0.512618499342,$1.75,0.983744032448,7,7,2.3898707258,0,1
6,0.75,6,1.75 0.75,0.75,0.600889398949,$1.75,0.684350921772,7,7,3.35680810735,0,2
5,1.0,3,1.5 1.0,1.0,0.766356091946,$1.5,1.59879361675,7,7,1.93958241376,0,2
4,1.75,6,1.75 1.5 0.75 1.25,1.75,7.96443782747e-06,$1.25,2.84449197352e-06,n/a,n/a,,1,1
6,1.5,2,1.5 0.75,1.5,0.771193344379,$1.5,1.7487837181,7,7,2.59535867232,0,2
5,1.25,3,1.0 1.25 1.5 0.5,1.25,0.888815439073,$1.25,1.53205568739,7,7,2.46221163077,0,2
2,1.25,2,1.25 0.5 1.0,1.25,0.849440442165,$1.25,2.31532651861,7,7,2.20519326255,0,1
1,0.5,12,1.75 0.5,0.5,1.35935387993,$1.75,0.716337204911,7,7,2.49618958985,0,1
5,1.25,6,1.25 1.0,1.25,0.633251148043,$1.25,1.11651731469,7,7,2.31759808748,0,2
4,0.5,12,0.75 1.75 1.0 0.5 1.25 1.5,0.5,7.39563256502e-06,$1.25,3.41329723597e-06,n/a,n/a,,1,1
7,0.5,3,..\..\JOCN-master\task a\images\fritos_original_corn chips.jpg ..\..\JOCN-master\task a\images\snyders_mini_pretzels.jpg ..\..\JOCN-master\task a\images\kind_almond_butter.jpg,3,5.11994585395e-06,..\..\JOCN-master\task a\images\kind_almond_butter.jpg,1.30843836814e-05,n/a,n/a,,1,2
1,0.5,12,0.75 1.75 1.25 0.5,0.5,0.882486562943,$1.75,1.14892514353,7,7,2.58643623674,0,1
5,1.25,2,1.5 1.75 1.0 0.5 0.75 1.25,1.25,0.628413326573,$1.75,1.18330359948,7,7,1.9443792752,0,2
4,0.5,2,..\..\JOCN-master\task a\images\skittles_sour_candy.jpg ..\..\JOCN-master\task a\images\cheetos_crunchy_chips.jpg,2,5.68875111639e-06,..\..\JOCN-master\task a\images\skittles_sour_candy.jpg,1.53600703925e-05,n/a,n/a,,1,1
1,1.25,2,1.5 1.25 0.5 1.0 1.75 0.75,1.25,0.739024448441,$1.75,1.5155937823,7,7,2.16094403504,0,1
6,1.5,6,1.25 0.75 1.5,1.5,0.746501340298,$1.5,2.33278397727,7,7,2.40310077975,0,2
8,1.0,6,1.0 1.5,1.0,7.96443782747e-06,$1.0,3.41329723597e-06,n/a,n/a,,1,2
1,0.75,2,0.5 0.75 1.5 1.75,0.75,0.560568910558,$1.5,1.89976937301,7,7,2.02133385977,0,1
5,1.0,2,0.75 1.75 1.0,1.0,0.780808685347,$1.75,0.550479686353,7,7,2.35759032797,0,2
5,0.75,3,1.5 0.75,0.75,0.556491692085,$1.5,1.71629112493,7,7,2.58754954999,0,2
1,1.25,3,0.5 1.25 1.75,1.25,0.835727971746,$1.75,0.733261615504,7,7,2.14969257289,0,1
6,1.25,2,1.25 1.0,1.25,0.872169214534,$1.25,1.18388329609,7,7,2.1104501267,0,2
5,0.75,6,0.75 1.75 0.5 1.0,0.75,1.10279346653,$1.75,0.75052849669,7,7,2.910315983,0,2
8,1.0,6,1.0 1.25 1.75 1.5,1.0,5.11994585395e-06,$1.5,2.84449197352e-06,n/a,n/a,,1,2
4,1.0,2,1.0 0.75 1.25 0.5,1.0,1.53600703925e-05,$0.75,3.41329723597e-06,n/a,n/a,,1,1
2,1.25,12,1.0 0.5 1.25,1.25,1.19755196222,$1.25,1.16566068353,7,7,2.094047955,0,1
